"Time (s)","Acceleration x (m/s^2)","Acceleration y (m/s^2)","Acceleration z (m/s^2)"
5.718470000E-3,6.300000101E-2,6.900000572E-2,9.642000198E0
7.706085000E-3,7.005000114E-2,9.795000404E-2,9.678000450E0
9.693547000E-3,6.599999964E-2,8.595000207E-2,9.709050179E0
1.168123900E-2,5.100000277E-2,1.140000075E-1,9.727950096E0
1.366916200E-2,6.300000101E-2,8.100000024E-2,9.703950882E0
1.565685400E-2,5.595000088E-2,9.000000358E-2,9.721050262E0
1.764454700E-2,1.995000057E-2,8.805000782E-2,9.738000870E0
1.963223900E-2,3.900000080E-2,9.300000221E-2,9.763950348E0
2.161993100E-2,4.395000264E-2,7.395000011E-2,9.751950264E0
2.360762300E-2,2.505000122E-2,8.100000024E-2,9.757050514E0
2.560738400E-2,7.950000465E-3,7.605000585E-2,9.733050346E0
2.760708300E-2,1.005000062E-2,8.295000345E-2,9.694950104E0
2.960678200E-2,1.050000079E-3,7.800000161E-2,9.703950882E0
3.160648100E-2,-1.200000010E-2,8.100000024E-2,9.682950020E0
3.360618000E-2,0.000000000E0,6.900000572E-2,9.679950714E0
3.560587900E-2,1.005000062E-2,7.605000585E-2,9.682950020E0
3.760557800E-2,-7.950000465E-3,8.805000782E-2,9.706950188E0
3.960527700E-2,-1.200000010E-2,9.300000221E-2,9.727950096E0
4.160497600E-2,1.050000079E-3,9.300000221E-2,9.762000084E0
4.360467500E-2,-1.995000057E-2,6.599999964E-2,9.721050262E0
4.560437400E-2,-2.700000070E-2,7.605000585E-2,9.775950432E0
4.760407300E-2,-2.895000204E-2,6.405000389E-2,9.771000862E0
4.960377200E-2,-1.200000010E-2,6.405000389E-2,9.738000870E0
5.160347100E-2,-2.700000070E-2,8.100000024E-2,9.757050514E0
5.360317000E-2,-4.395000264E-2,8.100000024E-2,9.766950607E0
5.560286900E-2,-4.095000029E-2,6.900000572E-2,9.745050430E0
5.760256800E-2,-3.600000218E-2,7.095000148E-2,9.726000786E0
5.960226700E-2,-5.100000277E-2,6.599999964E-2,9.733050346E0
6.160196600E-2,-3.900000080E-2,5.895000324E-2,9.736050606E0
6.360166500E-2,-2.895000204E-2,6.599999964E-2,9.718950272E0
6.560136400E-2,-3.900000080E-2,5.205000192E-2,9.715950012E0
6.760106300E-2,-4.605000094E-2,6.195000187E-2,9.733050346E0
6.960076200E-2,-2.700000070E-2,7.395000011E-2,9.727950096E0
7.160046100E-2,-3.600000218E-2,8.100000024E-2,9.733050346E0
7.360016000E-2,-1.200000010E-2,7.605000585E-2,9.763950348E0
7.559985900E-2,6.000000052E-3,8.805000782E-2,9.738000870E0
7.759955800E-2,-7.950000465E-3,7.095000148E-2,9.718950272E0
7.959925700E-2,-1.500000060E-2,8.100000024E-2,9.745050430E0
8.159895600E-2,0.000000000E0,9.795000404E-2,9.738000870E0
8.359865500E-2,1.995000057E-2,9.000000358E-2,9.721050262E0
8.559835400E-2,3.000000026E-3,1.000500023E-1,9.721050262E0
8.759805300E-2,2.505000122E-2,6.900000572E-2,9.714000702E0
8.959775200E-2,2.505000122E-2,9.300000221E-2,9.712050438E0
9.159745100E-2,3.195000067E-2,8.100000024E-2,9.733050346E0
9.359715000E-2,3.405000269E-2,9.495000541E-2,9.738000870E0
9.559684900E-2,1.800000109E-2,9.495000541E-2,9.718950272E0
9.759654800E-2,3.900000080E-2,1.020000055E-1,9.750000000E0
9.959624700E-2,5.100000277E-2,1.020000055E-1,9.736050606E0
1.015959460E-1,5.805000290E-2,9.795000404E-2,9.712050438E0
1.035956450E-1,6.105000153E-2,8.295000345E-2,9.709050179E0
1.055953440E-1,6.105000153E-2,8.295000345E-2,9.706950188E0
1.086264210E-1,5.595000088E-2,8.295000345E-2,9.706950188E0
1.110984980E-1,6.300000101E-2,9.795000404E-2,9.747000694E0
1.130870360E-1,6.795000285E-2,6.900000572E-2,9.762000084E0
1.150754300E-1,6.599999964E-2,9.000000358E-2,9.769050598E0
1.170639680E-1,6.105000153E-2,8.295000345E-2,9.762000084E0
1.190522760E-1,8.505000174E-2,7.095000148E-2,9.762000084E0
1.210406610E-1,6.105000153E-2,8.295000345E-2,9.747000694E0
1.230292760E-1,6.795000285E-2,6.900000572E-2,9.775950432E0
1.250178150E-1,6.599999964E-2,8.295000345E-2,9.762000084E0
1.270061260E-1,7.005000114E-2,7.605000585E-2,9.718950272E0
1.289945110E-1,6.599999964E-2,6.405000389E-2,9.750000000E0
1.309828190E-1,5.805000290E-2,5.895000324E-2,9.751950264E0
1.329714340E-1,3.195000067E-2,6.900000572E-2,9.750000000E0
1.349597420E-1,5.100000277E-2,8.100000024E-2,9.750000000E0
1.369482800E-1,4.605000094E-2,7.395000011E-2,9.747000694E0
1.389366700E-1,3.195000067E-2,6.405000389E-2,9.763950348E0
1.409252850E-1,3.900000080E-2,8.595000207E-2,9.757050514E0
1.429135930E-1,3.405000269E-2,8.595000207E-2,9.745050430E0
1.449021310E-1,2.205000073E-2,9.300000221E-2,9.736050606E0
1.468905160E-1,3.000000026E-3,8.295000345E-2,9.750000000E0
1.488790540E-1,1.995000057E-2,8.100000024E-2,9.750000000E0
1.508674440E-1,1.500000060E-2,7.800000161E-2,9.721050262E0
1.528557520E-1,1.500000060E-2,8.100000024E-2,9.712050438E0
1.548443670E-1,-4.950000439E-3,8.100000024E-2,9.721050262E0
1.568326750E-1,-4.950000439E-3,8.100000024E-2,9.738000870E0
1.588212130E-1,7.950000465E-3,7.095000148E-2,9.714000702E0
1.608095980E-1,-7.950000465E-3,6.900000572E-2,9.726000786E0
1.627981310E-1,-2.205000073E-2,6.195000187E-2,9.736050606E0
1.647865160E-1,-1.695000008E-2,7.605000585E-2,9.736050606E0
1.667750540E-1,-2.205000073E-2,7.395000011E-2,9.739950180E0
1.687634390E-1,-4.095000029E-2,7.395000011E-2,9.757050514E0
1.707519780E-1,-2.205000073E-2,7.800000161E-2,9.757050514E0
1.727402850E-1,-2.700000070E-2,7.395000011E-2,9.745050430E0
1.747286550E-1,-2.700000070E-2,7.800000161E-2,9.750000000E0
1.767171930E-1,-2.400000021E-2,6.405000389E-2,9.736050606E0
1.787055780E-1,-2.895000204E-2,6.599999964E-2,9.736050606E0
1.806941160E-1,-3.405000269E-2,7.095000148E-2,9.738000870E0
1.826825010E-1,-3.195000067E-2,6.900000572E-2,9.751950264E0
1.846710390E-1,-1.500000060E-2,7.395000011E-2,9.757050514E0
1.866594480E-1,-1.695000008E-2,6.405000389E-2,9.759000778E0
1.886477560E-1,-1.695000008E-2,7.395000011E-2,9.757050514E0
1.906362940E-1,-1.005000062E-2,7.800000161E-2,9.762000084E0
1.926249100E-1,-1.695000008E-2,8.295000345E-2,9.747000694E0
1.946132170E-1,-4.950000439E-3,8.805000782E-2,9.750000000E0
1.966016020E-1,0.000000000E0,5.700000376E-2,9.736050606E0
1.985901300E-1,-7.950000465E-3,8.805000782E-2,9.747000694E0
2.005785150E-1,-4.950000439E-3,9.000000358E-2,9.726000786E0
2.025670540E-1,3.000000026E-3,8.595000207E-2,9.724050522E0
2.045554380E-1,1.800000109E-2,9.300000221E-2,9.742950439E0
2.065439770E-1,1.800000109E-2,8.100000024E-2,9.745050430E0
2.085322840E-1,1.005000062E-2,8.595000207E-2,9.736050606E0
2.105206690E-1,0.000000000E0,7.605000585E-2,9.727950096E0
2.125092070E-1,1.500000060E-2,8.295000345E-2,9.727950096E0
2.144975920E-1,1.005000062E-2,9.495000541E-2,9.712050438E0
2.164861300E-1,1.005000062E-2,8.805000782E-2,9.709050179E0
2.184745150E-1,1.995000057E-2,8.100000024E-2,9.714000702E0
2.204630540E-1,2.205000073E-2,8.100000024E-2,9.718950272E0
2.224514190E-1,3.195000067E-2,1.020000055E-1,9.703950882E0
2.244397270E-1,2.205000073E-2,8.100000024E-2,9.712050438E0
2.264340000E-1,6.000000052E-3,7.395000011E-2,9.747000694E0
2.284282650E-1,4.200000316E-2,8.595000207E-2,9.733050346E0
2.304052650E-1,2.700000070E-2,7.605000585E-2,9.739950180E0
2.323935730E-1,2.700000070E-2,7.605000585E-2,9.742950439E0
2.343821120E-1,2.700000070E-2,8.295000345E-2,9.742950439E0
2.363704960E-1,3.000000119E-2,6.900000572E-2,9.738000870E0
2.383590350E-1,3.000000119E-2,8.100000024E-2,9.747000694E0
2.403474190E-1,3.000000119E-2,7.095000148E-2,9.738000870E0
2.423357270E-1,4.395000264E-2,6.195000187E-2,9.747000694E0
2.443243310E-1,4.605000094E-2,5.700000376E-2,9.733050346E0
2.463126390E-1,3.705000132E-2,7.095000148E-2,9.718950272E0
2.483011770E-1,3.900000080E-2,6.599999964E-2,9.727950096E0
2.502895620E-1,5.100000277E-2,7.395000011E-2,9.754950523E0
2.522781010E-1,3.705000132E-2,7.095000148E-2,9.742950439E0
2.542664850E-1,3.000000119E-2,8.100000024E-2,9.751950264E0
2.562550100E-1,5.400000140E-2,7.800000161E-2,9.747000694E0
2.582433940E-1,4.395000264E-2,8.295000345E-2,9.751950264E0
2.602319330E-1,3.405000269E-2,9.495000541E-2,9.750000000E0
2.622202400E-1,4.905000329E-2,7.800000161E-2,9.739950180E0
2.642086250E-1,4.395000264E-2,1.000500023E-1,9.726000786E0
2.661971640E-1,3.705000132E-2,8.595000207E-2,9.726000786E0
2.681855430E-1,4.200000316E-2,8.100000024E-2,9.712050438E0
2.701740820E-1,4.395000264E-2,8.805000782E-2,9.727950096E0
2.721624660E-1,2.700000070E-2,9.495000541E-2,9.715950012E0
2.741510050E-1,3.405000269E-2,8.295000345E-2,9.715950012E0
2.761393890E-1,3.405000269E-2,1.020000055E-1,9.724050522E0
2.781276970E-1,4.200000316E-2,8.100000024E-2,9.730950356E0
2.801162120E-1,1.800000109E-2,8.295000345E-2,9.726000786E0
2.821048280E-1,3.000000026E-3,1.020000055E-1,9.733050346E0
2.840931360E-1,1.500000060E-2,8.805000782E-2,9.730950356E0
2.860815200E-1,3.000000026E-3,8.100000024E-2,9.739950180E0
2.880700590E-1,3.000000026E-3,9.795000404E-2,9.750000000E0
2.900584430E-1,-7.950000465E-3,8.595000207E-2,9.762000084E0
2.920469870E-1,-3.000000026E-3,8.595000207E-2,9.759000778E0
2.940353710E-1,1.050000079E-3,8.595000207E-2,9.751950264E0
2.960239100E-1,-3.000000026E-3,9.795000404E-2,9.745050430E0
2.980122180E-1,-1.005000062E-2,8.295000345E-2,9.757050514E0
3.000006020E-1,-1.695000008E-2,7.800000161E-2,9.762000084E0
3.019891210E-1,-1.995000057E-2,8.100000024E-2,9.739950180E0
3.039775050E-1,-2.400000021E-2,8.805000782E-2,9.739950180E0
3.059660440E-1,-1.995000057E-2,7.800000161E-2,9.738000870E0
3.079544280E-1,-1.695000008E-2,7.095000148E-2,9.739950180E0
3.099429670E-1,-1.695000008E-2,8.295000345E-2,9.727950096E0
3.119313510E-1,-1.695000008E-2,8.100000024E-2,9.730950356E0
3.139198620E-1,-1.200000010E-2,6.599999964E-2,9.726000786E0
3.159081700E-1,-1.005000062E-2,8.805000782E-2,9.726000786E0
3.178965540E-1,-1.200000010E-2,7.395000011E-2,9.730950356E0
3.198851700E-1,-4.950000439E-3,7.095000148E-2,9.747000694E0
3.218734770E-1,0.000000000E0,5.205000192E-2,9.715950012E0
3.238620200E-1,-1.200000010E-2,7.605000585E-2,9.738000870E0
3.258504040E-1,1.050000079E-3,8.100000024E-2,9.726000786E0
3.278389430E-1,-1.005000062E-2,8.595000207E-2,9.745050430E0
3.298273270E-1,0.000000000E0,7.395000011E-2,9.739950180E0
3.318158660E-1,1.305000018E-2,7.395000011E-2,9.739950180E0
3.338042510E-1,1.500000060E-2,7.605000585E-2,9.721050262E0
3.357925680E-1,1.305000018E-2,7.095000148E-2,9.724050522E0
3.377811070E-1,1.305000018E-2,8.295000345E-2,9.724050522E0
3.397694910E-1,1.005000062E-2,9.795000404E-2,9.724050522E0
3.417581070E-1,2.505000122E-2,6.405000389E-2,9.733050346E0
3.437464140E-1,3.705000132E-2,6.195000187E-2,9.739950180E0
3.457349530E-1,2.700000070E-2,6.195000187E-2,9.727950096E0
3.477233560E-1,2.505000122E-2,8.295000345E-2,9.726000786E0
3.497118950E-1,2.505000122E-2,7.095000148E-2,9.736050606E0
3.517002800E-1,1.500000060E-2,7.095000148E-2,9.736050606E0
3.536885870E-1,2.205000073E-2,8.295000345E-2,9.730950356E0
3.556771260E-1,1.800000109E-2,7.605000585E-2,9.733050346E0
3.576657410E-1,1.800000109E-2,8.295000345E-2,9.745050430E0
3.596540540E-1,2.700000070E-2,6.599999964E-2,9.733050346E0
3.616424380E-1,2.205000073E-2,7.605000585E-2,9.747000694E0
3.636309770E-1,3.195000067E-2,7.395000011E-2,9.738000870E0
3.656193620E-1,2.205000073E-2,6.900000572E-2,9.745050430E0
3.676079000E-1,3.000000119E-2,8.595000207E-2,9.742950439E0
3.695962850E-1,2.505000122E-2,8.595000207E-2,9.750000000E0
3.715848130E-1,2.205000073E-2,9.300000221E-2,9.747000694E0
3.735731210E-1,3.405000269E-2,7.395000011E-2,9.747000694E0
3.755615050E-1,1.995000057E-2,8.805000782E-2,9.745050430E0
3.775500440E-1,1.500000060E-2,7.605000585E-2,9.742950439E0
3.795384280E-1,2.205000073E-2,7.605000585E-2,9.747000694E0
3.815269670E-1,3.405000269E-2,7.800000161E-2,9.750000000E0
3.835153620E-1,3.705000132E-2,6.195000187E-2,9.742950439E0
3.855039000E-1,3.000000119E-2,7.800000161E-2,9.736050606E0
3.874922850E-1,2.205000073E-2,5.895000324E-2,9.727950096E0
3.894808230E-1,1.800000109E-2,6.599999964E-2,9.727950096E0
3.914691310E-1,1.005000062E-2,7.800000161E-2,9.718950272E0
3.934575000E-1,3.000000119E-2,7.395000011E-2,9.726000786E0
3.954461160E-1,2.205000073E-2,8.100000024E-2,9.727950096E0
3.974344240E-1,1.995000057E-2,7.395000011E-2,9.736050606E0
3.994229620E-1,3.000000119E-2,6.599999964E-2,9.739950180E0
4.014113470E-1,2.505000122E-2,7.800000161E-2,9.714000702E0
4.033998850E-1,2.505000122E-2,7.095000148E-2,9.730950356E0
4.053882800E-1,2.205000073E-2,7.095000148E-2,9.733050346E0
4.073765870E-1,1.800000109E-2,8.295000345E-2,9.730950356E0
4.093652030E-1,2.205000073E-2,7.800000161E-2,9.745050430E0
4.113535100E-1,2.205000073E-2,9.495000541E-2,9.738000870E0
4.133420490E-1,1.995000057E-2,8.805000782E-2,9.730950356E0
4.153304340E-1,6.000000052E-3,6.900000572E-2,9.738000870E0
4.173189860E-1,6.000000052E-3,7.395000011E-2,9.730950356E0
4.193073710E-1,1.050000079E-3,8.805000782E-2,9.727950096E0
4.212959090E-1,1.800000109E-2,9.495000541E-2,9.759000778E0
4.232842940E-1,1.800000109E-2,1.020000055E-1,9.750000000E0
4.252728220E-1,1.800000109E-2,9.000000358E-2,9.721050262E0
4.292611300E-1,1.305000018E-2,8.595000207E-2,9.706950188E0
4.294236680E-1,1.050000079E-3,7.800000161E-2,9.726000786E0
4.312381300E-1,-1.005000062E-2,8.595000207E-2,9.730950356E0
4.332266680E-1,1.050000079E-3,9.000000358E-2,9.733050346E0
4.352149760E-1,-1.695000008E-2,9.495000541E-2,9.750000000E0
4.372033610E-1,-1.500000060E-2,9.495000541E-2,9.733050346E0
4.391918940E-1,-1.500000060E-2,9.495000541E-2,9.754950523E0
4.411802790E-1,-3.405000269E-2,8.805000782E-2,9.757050514E0
4.431688170E-1,-2.205000073E-2,8.805000782E-2,9.742950439E0
4.451571250E-1,-3.900000080E-2,1.069500074E-1,9.747000694E0
4.471457400E-1,-2.895000204E-2,9.495000541E-2,9.751950264E0
4.491340480E-1,-2.205000073E-2,1.099500060E-1,9.751950264E0
4.511224620E-1,-1.695000008E-2,1.120500043E-1,9.762000084E0
4.531110000E-1,-4.950000439E-3,1.020000055E-1,9.754950523E0
4.550993850E-1,-1.200000010E-2,9.795000404E-2,9.747000694E0
4.570879230E-1,-1.005000062E-2,9.495000541E-2,9.745050430E0
4.590763080E-1,-1.005000062E-2,8.595000207E-2,9.757050514E0
4.610648460E-1,-7.950000465E-3,9.000000358E-2,9.751950264E0
4.630532310E-1,6.000000052E-3,8.595000207E-2,9.745050430E0
4.650415390E-1,0.000000000E0,8.295000345E-2,9.754950523E0
4.670300770E-1,1.005000062E-2,7.605000585E-2,9.745050430E0
4.690186920E-1,1.800000109E-2,8.595000207E-2,9.762000084E0
4.710070770E-1,1.305000018E-2,8.805000782E-2,9.747000694E0
4.729953850E-1,3.405000269E-2,9.795000404E-2,9.759000778E0
4.749839040E-1,3.000000119E-2,7.095000148E-2,9.750000000E0
4.769722890E-1,1.995000057E-2,8.595000207E-2,9.750000000E0
4.789608270E-1,1.800000109E-2,7.800000161E-2,9.747000694E0
4.809492120E-1,4.395000264E-2,7.395000011E-2,9.750000000E0
4.829375200E-1,2.700000070E-2,6.900000572E-2,9.763950348E0
4.849261350E-1,3.000000119E-2,8.100000024E-2,9.762000084E0
4.869144570E-1,3.705000132E-2,7.605000585E-2,9.745050430E0
4.889029950E-1,3.705000132E-2,6.599999964E-2,9.757050514E0
4.908913800E-1,4.605000094E-2,7.395000011E-2,9.757050514E0
4.928799180E-1,4.395000264E-2,5.895000324E-2,9.751950264E0
4.948683030E-1,4.395000264E-2,6.405000389E-2,9.766950607E0
4.968566110E-1,4.905000329E-2,8.100000024E-2,9.763950348E0
4.988452640E-1,3.000000119E-2,6.900000572E-2,9.763950348E0
5.008338020E-1,3.705000132E-2,7.605000585E-2,9.763950348E0
5.028221100E-1,2.700000070E-2,7.095000148E-2,9.742950439E0
5.048104950E-1,4.605000094E-2,7.605000585E-2,9.750000000E0
5.067991100E-1,3.900000080E-2,8.100000024E-2,9.750000000E0
5.087876490E-1,2.505000122E-2,7.800000161E-2,9.750000000E0
5.107759560E-1,3.000000119E-2,7.095000148E-2,9.754950523E0
5.127643410E-1,2.700000070E-2,9.300000221E-2,9.747000694E0
5.147528790E-1,3.000000119E-2,9.300000221E-2,9.754950523E0
5.167412640E-1,2.700000070E-2,7.395000011E-2,9.750000000E0
5.187298020E-1,1.995000057E-2,8.100000024E-2,9.769050598E0
5.207181870E-1,4.395000264E-2,8.295000345E-2,9.759000778E0
5.227067120E-1,3.000000119E-2,7.800000161E-2,9.774000168E0
5.246950190E-1,3.000000119E-2,9.000000358E-2,9.762000084E0
5.266836350E-1,4.200000316E-2,8.595000207E-2,9.762000084E0
5.286719420E-1,3.900000080E-2,7.095000148E-2,9.762000084E0
5.306605580E-1,3.000000119E-2,7.800000161E-2,9.769050598E0
5.326488650E-1,2.700000070E-2,7.395000011E-2,9.766950607E0
5.346371730E-1,3.900000080E-2,7.605000585E-2,9.757050514E0
5.366257890E-1,3.195000067E-2,7.095000148E-2,9.774000168E0
5.386141730E-1,6.000000052E-3,6.900000572E-2,9.751950264E0
5.406027120E-1,2.505000122E-2,9.300000221E-2,9.750000000E0
5.425910190E-1,2.205000073E-2,7.605000585E-2,9.745050430E0
5.445796350E-1,2.700000070E-2,6.900000572E-2,9.739950180E0
5.465679370E-1,3.000000119E-2,8.595000207E-2,9.742950439E0
5.485563220E-1,1.995000057E-2,8.805000782E-2,9.759000778E0
5.505449370E-1,1.305000018E-2,8.295000345E-2,9.751950264E0
5.525332450E-1,7.950000465E-3,7.800000161E-2,9.754950523E0
5.545217840E-1,1.500000060E-2,9.300000221E-2,9.774000168E0
5.565101680E-1,1.050000079E-3,8.805000782E-2,9.774000168E0
5.584986880E-1,1.050000079E-3,8.805000782E-2,9.802950859E0
5.604870720E-1,1.005000062E-2,1.120500043E-1,9.782999992E0
5.624753800E-1,0.000000000E0,1.020000055E-1,9.778950691E0
5.644639950E-1,1.305000018E-2,1.000500023E-1,9.795000076E0
5.664525340E-1,-1.500000060E-2,9.495000541E-2,9.775950432E0
5.684409180E-1,-1.500000060E-2,7.800000161E-2,9.774000168E0
5.704292160E-1,-7.950000465E-3,1.240500063E-1,9.754950523E0
5.724175240E-1,-2.205000073E-2,1.020000055E-1,9.757050514E0
5.744061390E-1,-1.005000062E-2,1.069500074E-1,9.747000694E0
5.763946780E-1,-1.695000008E-2,1.050000042E-1,9.750000000E0
5.783830620E-1,-2.700000070E-2,9.795000404E-2,9.745050430E0
5.803713700E-1,-2.205000073E-2,9.495000541E-2,9.733050346E0
5.823599850E-1,-2.400000021E-2,9.300000221E-2,9.730950356E0
5.843482930E-1,-2.400000021E-2,9.495000541E-2,9.750000000E0
5.863368320E-1,-3.600000218E-2,9.495000541E-2,9.736050606E0
5.883254470E-1,-3.405000269E-2,9.300000221E-2,9.763950348E0
5.903137550E-1,-5.100000277E-2,7.605000585E-2,9.762000084E0
5.923021390E-1,-1.695000008E-2,8.805000782E-2,9.766950607E0
5.942906830E-1,-2.400000021E-2,8.805000782E-2,9.745050430E0
5.962790670E-1,-2.700000070E-2,9.495000541E-2,9.738000870E0
5.982676060E-1,-1.995000057E-2,6.599999964E-2,9.754950523E0
6.002559140E-1,-1.500000060E-2,8.100000024E-2,9.738000870E0
6.022445290E-1,-1.500000060E-2,7.395000011E-2,9.763950348E0
6.042329000E-1,-7.950000465E-3,6.405000389E-2,9.751950264E0
6.062212070E-1,0.000000000E0,5.895000324E-2,9.774000168E0
6.082097460E-1,0.000000000E0,6.900000572E-2,9.771000862E0
6.101981300E-1,1.050000079E-3,7.395000011E-2,9.757050514E0
6.121866690E-1,-1.005000062E-2,6.900000572E-2,9.762000084E0
6.141750530E-1,2.505000122E-2,5.700000376E-2,9.759000778E0
6.161636020E-1,3.000000026E-3,6.405000389E-2,9.766950607E0
6.181519100E-1,2.505000122E-2,4.695000127E-2,9.766950607E0
6.201405250E-1,3.705000132E-2,6.195000187E-2,9.750000000E0
6.221288330E-1,3.195000067E-2,5.400000140E-2,9.763950348E0
6.241172170E-1,2.505000122E-2,6.405000389E-2,9.754950523E0
6.261115460E-1,4.200000316E-2,5.400000140E-2,9.763950348E0
6.281058510E-1,4.200000316E-2,6.900000572E-2,9.762000084E0
6.300826970E-1,4.200000316E-2,8.295000345E-2,9.751950264E0
6.320710810E-1,4.905000329E-2,8.295000345E-2,9.771000862E0
6.340596200E-1,4.395000264E-2,6.405000389E-2,9.757050514E0
6.360480050E-1,4.905000329E-2,6.405000389E-2,9.759000778E0
6.380365430E-1,5.805000290E-2,5.895000324E-2,9.745050430E0
6.400249280E-1,3.900000080E-2,8.295000345E-2,9.745050430E0
6.420134660E-1,4.605000094E-2,7.605000585E-2,9.757050514E0
6.440017740E-1,5.100000277E-2,7.395000011E-2,9.754950523E0
6.459901580E-1,3.405000269E-2,8.805000782E-2,9.738000870E0
6.479786970E-1,2.505000122E-2,8.295000345E-2,9.762000084E0
6.499670810E-1,4.395000264E-2,7.605000585E-2,9.757050514E0
6.519556250E-1,4.200000316E-2,9.000000358E-2,9.730950356E0
6.539440100E-1,6.300000101E-2,7.800000161E-2,9.736050606E0
6.559325480E-1,4.395000264E-2,9.300000221E-2,9.762000084E0
6.579209330E-1,5.100000277E-2,1.050000042E-1,9.754950523E0
6.599092400E-1,3.705000132E-2,9.300000221E-2,9.750000000E0
6.618977890E-1,3.900000080E-2,1.020000055E-1,9.751950264E0
6.638864040E-1,3.405000269E-2,9.795000404E-2,9.754950523E0
6.658747120E-1,4.905000329E-2,1.050000042E-1,9.750000000E0
6.678630970E-1,2.505000122E-2,9.495000541E-2,9.759000778E0
6.698516350E-1,3.900000080E-2,1.140000075E-1,9.771000862E0
6.718400200E-1,3.705000132E-2,9.495000541E-2,9.759000778E0
6.738285390E-1,2.505000122E-2,1.050000042E-1,9.781050682E0
6.758168470E-1,3.195000067E-2,8.805000782E-2,9.766950607E0
6.778054620E-1,2.505000122E-2,9.795000404E-2,9.762000084E0
6.797938470E-1,2.505000122E-2,8.295000345E-2,9.769050598E0
6.817821540E-1,3.195000067E-2,8.595000207E-2,9.750000000E0
6.837706930E-1,2.505000122E-2,9.300000221E-2,9.754950523E0
6.857592890E-1,3.000000119E-2,7.800000161E-2,9.762000084E0
6.877475970E-1,2.505000122E-2,7.605000585E-2,9.754950523E0
6.897359820E-1,3.900000080E-2,8.805000782E-2,9.742950439E0
6.917245200E-1,3.000000119E-2,7.605000585E-2,9.750000000E0
6.937129050E-1,2.505000122E-2,8.595000207E-2,9.730950356E0
6.957014430E-1,2.205000073E-2,5.895000324E-2,9.742950439E0
6.976897560E-1,2.505000122E-2,8.100000024E-2,9.736050606E0
6.996783710E-1,2.505000122E-2,8.295000345E-2,9.724050522E0
7.016667560E-1,1.995000057E-2,5.700000376E-2,9.718950272E0
7.036550640E-1,3.405000269E-2,9.495000541E-2,9.733050346E0
7.056436020E-1,2.505000122E-2,7.605000585E-2,9.742950439E0
7.076319870E-1,7.950000465E-3,7.800000161E-2,9.739950180E0
7.096205390E-1,1.800000109E-2,6.900000572E-2,9.750000000E0
7.116089240E-1,1.005000062E-2,7.800000161E-2,9.751950264E0
7.135972310E-1,2.205000073E-2,6.599999964E-2,9.747000694E0
7.155858470E-1,1.800000109E-2,6.405000389E-2,9.754950523E0
7.175743850E-1,2.205000073E-2,7.395000011E-2,9.747000694E0
7.195626930E-1,1.305000018E-2,7.395000011E-2,9.750000000E0
7.215510780E-1,-4.950000439E-3,7.800000161E-2,9.769050598E0
7.235396930E-1,1.800000109E-2,6.599999964E-2,9.757050514E0
7.255280010E-1,1.050000079E-3,7.605000585E-2,9.759000778E0
7.275165390E-1,1.005000062E-2,7.395000011E-2,9.769050598E0
7.295049240E-1,3.000000026E-3,6.599999964E-2,9.762000084E0
7.314934620E-1,3.000000026E-3,7.605000585E-2,9.759000778E0
7.334818470E-1,7.950000465E-3,6.599999964E-2,9.747000694E0
7.354703850E-1,1.305000018E-2,7.095000148E-2,9.762000084E0
7.374587700E-1,0.000000000E0,8.295000345E-2,9.759000778E0
7.394473080E-1,1.050000079E-3,6.405000389E-2,9.763950348E0
7.414356160E-1,3.000000026E-3,8.805000782E-2,9.781050682E0
7.434240010E-1,6.000000052E-3,6.405000389E-2,9.759000778E0
7.454126350E-1,1.305000018E-2,8.100000024E-2,9.757050514E0
7.474009430E-1,7.950000465E-3,5.895000324E-2,9.754950523E0
7.493894810E-1,6.000000052E-3,6.405000389E-2,9.763950348E0
7.513777890E-1,1.995000057E-2,6.900000572E-2,9.769050598E0
7.533664040E-1,1.005000062E-2,6.599999964E-2,9.762000084E0
7.553547890E-1,7.950000465E-3,6.599999964E-2,9.766950607E0
7.573430870E-1,1.995000057E-2,4.500000179E-2,9.771000862E0
7.593316250E-1,2.205000073E-2,5.700000376E-2,9.774000168E0
7.613202410E-1,1.800000109E-2,5.895000324E-2,9.771000862E0
7.633085480E-1,2.505000122E-2,6.599999964E-2,9.754950523E0
7.652969330E-1,3.195000067E-2,4.695000127E-2,9.769050598E0
7.672854710E-1,2.700000070E-2,5.205000192E-2,9.766950607E0
7.692738700E-1,1.800000109E-2,4.995000362E-2,9.762000084E0
7.712624080E-1,1.800000109E-2,5.895000324E-2,9.762000084E0
7.732507930E-1,0.000000000E0,6.195000187E-2,9.763950348E0
7.752393320E-1,2.505000122E-2,5.895000324E-2,9.754950523E0
7.772277160E-1,1.800000109E-2,6.195000187E-2,9.750000000E0
7.792160240E-1,1.800000109E-2,5.400000140E-2,9.733050346E0
7.812045770E-1,2.205000073E-2,7.605000585E-2,9.727950096E0
7.831931930E-1,1.800000109E-2,6.405000389E-2,9.733050346E0
7.851815000E-1,1.800000109E-2,6.195000187E-2,9.712050438E0
7.871698850E-1,1.800000109E-2,7.800000161E-2,9.736050606E0
7.891584240E-1,1.305000018E-2,7.800000161E-2,9.736050606E0
7.911468080E-1,1.800000109E-2,7.095000148E-2,9.736050606E0
7.931353710E-1,6.000000052E-3,8.595000207E-2,9.727950096E0
7.951237550E-1,1.005000062E-2,9.000000358E-2,9.726000786E0
7.971120630E-1,-1.500000060E-2,9.300000221E-2,9.721050262E0
7.991006780E-1,-4.950000439E-3,8.595000207E-2,9.706950188E0
8.010889860E-1,1.050000079E-3,8.100000024E-2,9.724050522E0
8.030775090E-1,3.000000026E-3,9.795000404E-2,9.721050262E0
8.050661250E-1,-2.205000073E-2,8.295000345E-2,9.739950180E0
8.070545090E-1,3.000000026E-3,9.300000221E-2,9.706950188E0
8.090428170E-1,-7.950000465E-3,8.295000345E-2,9.718950272E0
8.110313560E-1,7.950000465E-3,9.000000358E-2,9.706950188E0
8.130197400E-1,3.000000026E-3,1.000500023E-1,9.739950180E0
8.150082700E-1,-1.200000010E-2,1.219500080E-1,9.757050514E0
8.169965770E-1,-1.005000062E-2,1.140000075E-1,9.738000870E0
8.189849620E-1,0.000000000E0,1.000500023E-1,9.715950012E0
8.209735770E-1,3.000000026E-3,1.099500060E-1,9.709050179E0
8.229618850E-1,6.000000052E-3,1.099500060E-1,9.721050262E0
8.249503950E-1,6.000000052E-3,1.120500043E-1,9.727950096E0
8.269445900E-1,7.950000465E-3,1.050000042E-1,9.730950356E0
8.289387790E-1,1.005000062E-2,9.000000358E-2,9.727950096E0
8.309157020E-1,1.305000018E-2,1.069500074E-1,9.733050346E0
8.329042410E-1,1.995000057E-2,8.805000782E-2,9.736050606E0
8.348926250E-1,1.050000079E-3,9.300000221E-2,9.738000870E0
8.368811640E-1,1.305000018E-2,9.795000404E-2,9.712050438E0
8.388694720E-1,2.205000073E-2,1.050000042E-1,9.715950012E0
8.408578560E-1,0.000000000E0,1.020000055E-1,9.712050438E0
8.428464720E-1,1.005000062E-2,9.000000358E-2,9.715950012E0
8.448350100E-1,6.000000052E-3,9.300000221E-2,9.726000786E0
8.468233180E-1,2.505000122E-2,9.300000221E-2,9.733050346E0
8.488117020E-1,6.000000052E-3,8.595000207E-2,9.745050430E0
8.508002500E-1,1.500000060E-2,8.295000345E-2,9.754950523E0
8.527886340E-1,1.500000060E-2,8.805000782E-2,9.736050606E0
8.547769420E-1,1.305000018E-2,8.100000024E-2,9.739950180E0
8.567654810E-1,2.205000073E-2,7.095000148E-2,9.730950356E0
8.587540960E-1,1.305000018E-2,6.599999964E-2,9.736050606E0
8.607424040E-1,3.705000132E-2,1.069500074E-1,9.726000786E0
8.627308120E-1,2.700000070E-2,7.605000585E-2,9.727950096E0
8.647194280E-1,1.005000062E-2,7.605000585E-2,9.738000870E0
8.667079660E-1,1.305000018E-2,8.100000024E-2,9.759000778E0
8.686962740E-1,2.205000073E-2,7.605000585E-2,9.747000694E0
8.706846580E-1,2.505000122E-2,6.900000572E-2,9.747000694E0
8.726731970E-1,1.500000060E-2,6.405000389E-2,9.766950607E0
8.746615870E-1,1.800000109E-2,7.095000148E-2,9.757050514E0
8.766501250E-1,1.995000057E-2,6.405000389E-2,9.757050514E0
8.786385100E-1,2.700000070E-2,7.095000148E-2,9.736050606E0
8.806270480E-1,2.205000073E-2,7.095000148E-2,9.736050606E0
8.826154330E-1,0.000000000E0,6.195000187E-2,9.742950439E0
8.846037400E-1,1.800000109E-2,6.900000572E-2,9.739950180E0
8.865922600E-1,3.000000026E-3,7.605000585E-2,9.730950356E0
8.885806450E-1,1.800000109E-2,6.900000572E-2,9.718950272E0
8.905691830E-1,1.305000018E-2,8.595000207E-2,9.726000786E0
8.925574910E-1,1.800000109E-2,7.395000011E-2,9.730950356E0
8.945458750E-1,2.505000122E-2,6.900000572E-2,9.721050262E0
8.965344910E-1,1.005000062E-2,7.095000148E-2,9.726000786E0
8.985230190E-1,2.505000122E-2,7.395000011E-2,9.724050522E0
9.005113270E-1,2.205000073E-2,7.395000011E-2,9.727950096E0
9.024999420E-1,2.205000073E-2,7.800000161E-2,9.727950096E0
9.044882500E-1,1.995000057E-2,6.900000572E-2,9.754950523E0
9.064766350E-1,1.995000057E-2,8.595000207E-2,9.747000694E0
9.084651730E-1,3.405000269E-2,7.395000011E-2,9.759000778E0
9.104535440E-1,2.700000070E-2,6.900000572E-2,9.733050346E0
9.124420820E-1,2.700000070E-2,7.095000148E-2,9.739950180E0
9.144304670E-1,3.195000067E-2,8.805000782E-2,9.730950356E0
9.164190050E-1,3.000000119E-2,9.000000358E-2,9.739950180E0
9.184073900E-1,4.605000094E-2,9.795000404E-2,9.745050430E0
9.203959280E-1,3.705000132E-2,8.595000207E-2,9.742950439E0
9.223842360E-1,2.700000070E-2,8.595000207E-2,9.771000862E0
9.243728510E-1,3.405000269E-2,9.000000358E-2,9.759000778E0
9.263612360E-1,2.700000070E-2,1.099500060E-1,9.763950348E0
9.283495440E-1,2.700000070E-2,6.900000572E-2,9.747000694E0
9.303378510E-1,2.505000122E-2,7.800000161E-2,9.771000862E0
9.323263900E-1,1.800000109E-2,8.595000207E-2,9.769050598E0
9.343150000E-1,2.205000073E-2,1.000500023E-1,9.771000862E0
9.363033850E-1,1.005000062E-2,1.020000055E-1,9.775950432E0
9.382919230E-1,1.995000057E-2,9.795000404E-2,9.766950607E0
9.402803080E-1,1.305000018E-2,1.020000055E-1,9.759000778E0
9.422686160E-1,2.205000073E-2,1.050000042E-1,9.759000778E0
9.442571680E-1,3.000000119E-2,1.120500043E-1,9.775950432E0
9.462455530E-1,2.205000073E-2,1.069500074E-1,9.754950523E0
9.482341680E-1,1.305000018E-2,9.000000358E-2,9.778950691E0
9.502224760E-1,0.000000000E0,9.000000358E-2,9.747000694E0
9.522110140E-1,3.000000026E-3,8.805000782E-2,9.751950264E0
9.541993990E-1,1.995000057E-2,1.000500023E-1,9.745050430E0
9.561879370E-1,-3.000000026E-3,9.000000358E-2,9.754950523E0
9.581763220E-1,1.050000079E-3,1.000500023E-1,9.766950607E0
9.601648600E-1,3.000000026E-3,8.595000207E-2,9.759000778E0
9.621532450E-1,1.305000018E-2,8.805000782E-2,9.747000694E0
9.641415530E-1,1.305000018E-2,8.295000345E-2,9.774000168E0
9.661300910E-1,6.000000052E-3,8.100000024E-2,9.751950264E0
9.681186930E-1,3.000000026E-3,8.595000207E-2,9.733050346E0
9.701070000E-1,1.050000079E-3,8.100000024E-2,9.742950439E0
9.720953850E-1,6.000000052E-3,6.599999964E-2,9.718950272E0
9.740839230E-1,7.950000465E-3,7.095000148E-2,9.739950180E0
9.760723080E-1,1.005000062E-2,6.599999964E-2,9.754950523E0
9.780608470E-1,1.005000062E-2,7.605000585E-2,9.750000000E0
9.800492160E-1,1.005000062E-2,6.900000572E-2,9.759000778E0
9.820375240E-1,7.950000465E-3,5.700000376E-2,9.766950607E0
9.840260620E-1,2.505000122E-2,7.800000161E-2,9.754950523E0
9.860146780E-1,0.000000000E0,4.695000127E-2,9.745050430E0
9.880029850E-1,1.050000079E-3,7.095000148E-2,9.750000000E0
9.899913700E-1,7.950000465E-3,5.400000140E-2,9.769050598E0
9.919799280E-1,1.800000109E-2,6.405000389E-2,9.745050430E0
9.939683130E-1,7.950000465E-3,4.500000179E-2,9.745050430E0
9.959568520E-1,3.000000026E-3,5.700000376E-2,9.742950439E0
9.979452360E-1,1.995000057E-2,5.895000324E-2,9.739950180E0
9.999337750E-1,2.205000073E-2,4.995000362E-2,9.738000870E0
1.001922087E0,1.005000062E-2,6.405000389E-2,9.750000000E0
1.003910472E0,6.000000052E-3,4.695000127E-2,9.739950180E0
1.005899087E0,1.305000018E-2,4.005000368E-2,9.738000870E0
1.007887626E0,1.995000057E-2,6.195000187E-2,9.727950096E0
1.009876010E0,2.205000073E-2,4.695000127E-2,9.739950180E0
1.011864318E0,6.000000052E-3,4.995000362E-2,9.718950272E0
1.013852636E0,3.000000026E-3,5.400000140E-2,9.736050606E0
1.015841251E0,1.500000060E-2,5.205000192E-2,9.739950180E0
1.017829790E0,6.000000052E-3,6.599999964E-2,9.736050606E0
1.019818097E0,1.305000018E-2,7.395000011E-2,9.727950096E0
1.021806482E0,1.995000057E-2,6.900000572E-2,9.721050262E0
1.023795097E0,2.205000073E-2,7.800000161E-2,9.730950356E0
1.025789244E0,2.700000070E-2,6.900000572E-2,9.750000000E0
1.027783395E0,2.505000122E-2,7.605000585E-2,9.714000702E0
1.029279626E0,2.205000073E-2,6.405000389E-2,9.730950356E0
1.031748857E0,1.800000109E-2,8.595000207E-2,9.738000870E0
1.033737241E0,1.305000018E-2,6.900000572E-2,9.727950096E0
1.035725780E0,1.500000060E-2,1.069500074E-1,9.726000786E0
1.037714164E0,3.000000119E-2,9.795000404E-2,9.750000000E0
1.039702693E0,1.995000057E-2,7.800000161E-2,9.727950096E0
1.041691077E0,3.195000067E-2,9.795000404E-2,9.742950439E0
1.043679616E0,3.900000080E-2,1.000500023E-1,9.742950439E0
1.045668001E0,3.195000067E-2,1.050000042E-1,9.726000786E0
1.047656539E0,3.900000080E-2,1.000500023E-1,9.718950272E0
1.049644847E0,2.205000073E-2,9.795000404E-2,9.733050346E0
1.051633453E0,1.995000057E-2,1.020000055E-1,9.742950439E0
1.053621838E0,3.195000067E-2,9.300000221E-2,9.730950356E0
1.055610145E0,3.000000119E-2,1.000500023E-1,9.738000870E0
1.057598684E0,3.195000067E-2,1.050000042E-1,9.745050430E0
1.059586992E0,1.800000109E-2,1.000500023E-1,9.724050522E0
1.061575607E0,2.505000122E-2,1.099500060E-1,9.730950356E0
1.063563987E0,4.395000264E-2,1.099500060E-1,9.745050430E0
1.065552294E0,3.195000067E-2,1.050000042E-1,9.754950523E0
1.067540910E0,2.205000073E-2,1.020000055E-1,9.730950356E0
1.069529217E0,3.000000119E-2,9.000000358E-2,9.738000870E0
1.071517756E0,3.405000269E-2,9.000000358E-2,9.733050346E0
1.073506164E0,1.305000018E-2,9.300000221E-2,9.739950180E0
1.075494703E0,7.950000465E-3,8.595000207E-2,9.730950356E0
1.077483088E0,7.950000465E-3,9.300000221E-2,9.715950012E0
1.079471626E0,1.005000062E-2,7.395000011E-2,9.727950096E0
1.081460011E0,-3.000000026E-3,8.805000782E-2,9.721050262E0
1.083448549E0,7.950000465E-3,8.100000024E-2,9.724050522E0
1.085436924E0,1.800000109E-2,7.800000161E-2,9.703950882E0
1.087425231E0,6.000000052E-3,6.599999964E-2,9.730950356E0
1.089413847E0,-1.200000010E-2,7.395000011E-2,9.727950096E0
1.091402154E0,-1.005000062E-2,7.605000585E-2,9.733050346E0
1.093390693E0,-4.950000439E-3,7.800000161E-2,9.730950356E0
1.095379308E0,1.050000079E-3,7.095000148E-2,9.726000786E0
1.097367631E0,-3.000000026E-3,5.205000192E-2,9.736050606E0
1.099356016E0,-4.950000439E-3,6.900000572E-2,9.750000000E0
1.101344554E0,-1.995000057E-2,6.405000389E-2,9.730950356E0
1.103332862E0,-4.950000439E-3,5.205000192E-2,9.742950439E0
1.105321477E0,-1.500000060E-2,6.195000187E-2,9.762000084E0
1.107309785E0,6.000000052E-3,5.895000324E-2,9.751950264E0
1.109298184E0,1.005000062E-2,6.195000187E-2,9.736050606E0
1.111286722E0,-7.950000465E-3,6.900000572E-2,9.742950439E0
1.113275337E0,2.205000073E-2,6.405000389E-2,9.762000084E0
1.115263645E0,0.000000000E0,5.400000140E-2,9.726000786E0
1.117252030E0,-4.950000439E-3,5.895000324E-2,9.750000000E0
1.119240568E0,2.205000073E-2,5.700000376E-2,9.733050346E0
1.121228958E0,2.505000122E-2,5.700000376E-2,9.739950180E0
1.123217496E0,1.800000109E-2,6.900000572E-2,9.747000694E0
1.125205881E0,1.800000109E-2,7.095000148E-2,9.742950439E0
1.127194419E0,3.705000132E-2,6.900000572E-2,9.733050346E0
1.129182727E0,1.500000060E-2,6.405000389E-2,9.739950180E0
1.131171112E0,3.705000132E-2,7.395000011E-2,9.730950356E0
1.133159712E0,3.000000119E-2,8.805000782E-2,9.733050346E0
1.135148250E0,4.395000264E-2,8.100000024E-2,9.747000694E0
1.137136635E0,3.900000080E-2,8.295000345E-2,9.736050606E0
1.139124943E0,3.900000080E-2,9.300000221E-2,9.739950180E0
1.141113481E0,2.505000122E-2,1.170000061E-1,9.730950356E0
1.143101861E0,3.000000119E-2,1.000500023E-1,9.730950356E0
1.145090399E0,4.605000094E-2,9.495000541E-2,9.718950272E0
1.147078784E0,3.705000132E-2,1.120500043E-1,9.706950188E0
1.149067092E0,4.200000316E-2,9.495000541E-2,9.726000786E0
1.151055707E0,3.405000269E-2,1.050000042E-1,9.727950096E0
1.153044015E0,3.195000067E-2,8.295000345E-2,9.726000786E0
1.155032568E0,3.705000132E-2,1.069500074E-1,9.730950356E0
1.157021184E0,2.205000073E-2,9.300000221E-2,9.709050179E0
1.159009491E0,2.700000070E-2,9.000000358E-2,9.727950096E0
1.160997876E0,2.205000073E-2,1.189500093E-1,9.733050346E0
1.162986414E0,1.005000062E-2,1.069500074E-1,9.738000870E0
1.164974799E0,2.205000073E-2,1.170000061E-1,9.778950691E0
1.166963332E0,1.005000062E-2,1.000500023E-1,9.700050354E0
1.168951717E0,6.000000052E-3,1.099500060E-1,9.703950882E0
1.170940256E0,6.000000052E-3,9.495000541E-2,9.721050262E0
1.172928640E0,1.500000060E-2,1.020000055E-1,9.736050606E0
1.174917179E0,-1.200000010E-2,1.099500060E-1,9.730950356E0
1.176905486E0,1.995000057E-2,9.300000221E-2,9.702000618E0
1.178894087E0,-1.500000060E-2,1.020000055E-1,9.709050179E0
1.180882394E0,6.000000052E-3,9.495000541E-2,9.726000786E0
1.182870779E0,1.050000079E-3,9.000000358E-2,9.751950264E0
1.184859318E0,0.000000000E0,9.000000358E-2,9.712050438E0
1.186847702E0,-1.500000060E-2,6.900000572E-2,9.697050095E0
1.188836241E0,3.000000026E-3,8.595000207E-2,9.742950439E0
1.190824610E0,3.000000026E-3,9.000000358E-2,9.733050346E0
1.192812918E0,1.005000062E-2,7.605000585E-2,9.724050522E0
1.194801533E0,7.950000465E-3,8.100000024E-2,9.702000618E0
1.196789841E0,6.000000052E-3,7.095000148E-2,9.709050179E0
1.198778379E0,7.950000465E-3,5.700000376E-2,9.733050346E0
1.200766764E0,1.005000062E-2,5.700000376E-2,9.742950439E0
1.202755322E0,7.950000465E-3,7.800000161E-2,9.709050179E0
1.204743706E0,1.500000060E-2,6.405000389E-2,9.714000702E0
1.206732245E0,2.505000122E-2,7.095000148E-2,9.750000000E0
1.208720629E0,1.005000062E-2,4.695000127E-2,9.730950356E0
1.210709168E0,1.305000018E-2,5.895000324E-2,9.682950020E0
1.212697552E0,1.050000079E-3,6.195000187E-2,9.726000786E0
1.214685865E0,-1.005000062E-2,6.405000389E-2,9.763950348E0
1.216674480E0,0.000000000E0,6.405000389E-2,9.766950607E0
1.218662788E0,-3.000000026E-3,5.400000140E-2,9.724050522E0
1.220651327E0,0.000000000E0,5.700000376E-2,9.709050179E0
1.222639711E0,7.950000465E-3,6.405000389E-2,9.745050430E0
1.224628250E0,-3.000000026E-3,6.195000187E-2,9.778950691E0
1.226622455E0,6.000000052E-3,5.895000324E-2,9.726000786E0
1.228616644E0,3.000000026E-3,5.895000324E-2,9.688050270E0
1.230593567E0,1.050000079E-3,5.700000376E-2,9.738000870E0
1.232582106E0,1.305000018E-2,5.895000324E-2,9.750000000E0
1.234570491E0,1.500000060E-2,6.195000187E-2,9.738000870E0
1.236558798E0,0.000000000E0,6.599999964E-2,9.709050179E0
1.238547337E0,0.000000000E0,6.599999964E-2,9.703950882E0
1.240535956E0,1.005000062E-2,4.695000127E-2,9.754950523E0
1.242524264E0,-4.950000439E-3,6.195000187E-2,9.726000786E0
1.244512648E0,1.005000062E-2,6.195000187E-2,9.750000000E0
1.246501187E0,1.305000018E-2,7.395000011E-2,9.685050011E0
1.248489571E0,3.000000119E-2,8.595000207E-2,9.757050514E0
1.250478110E0,2.505000122E-2,7.800000161E-2,9.757050514E0
1.252466500E0,3.000000119E-2,8.595000207E-2,9.730950356E0
1.254455038E0,3.705000132E-2,6.599999964E-2,9.721050262E0
1.256443423E0,2.205000073E-2,7.800000161E-2,9.738000870E0
1.258431730E0,2.700000070E-2,8.295000345E-2,9.727950096E0
1.260420269E0,3.195000067E-2,9.495000541E-2,9.718950272E0
1.262408865E0,4.605000094E-2,7.605000585E-2,9.730950356E0
1.264397250E0,3.705000132E-2,1.020000055E-1,9.724050522E0
1.266385558E0,3.705000132E-2,1.069500074E-1,9.736050606E0
1.268374096E0,4.395000264E-2,1.120500043E-1,9.694950104E0
1.270362481E0,4.905000329E-2,9.795000404E-2,9.703950882E0
1.272351019E0,4.395000264E-2,1.000500023E-1,9.754950523E0
1.274339428E0,5.400000140E-2,1.219500080E-1,9.706950188E0
1.276327966E0,4.605000094E-2,1.099500060E-1,9.703950882E0
1.278316351E0,3.705000132E-2,8.805000782E-2,9.739950180E0
1.280304658E0,5.400000140E-2,1.069500074E-1,9.678000450E0
1.282293197E0,4.605000094E-2,1.099500060E-1,9.727950096E0
1.284281812E0,3.000000119E-2,1.189500093E-1,9.762000084E0
1.286270197E0,3.195000067E-2,1.099500060E-1,9.702000618E0
1.288258505E0,3.000000119E-2,1.069500074E-1,9.714000702E0
1.290246812E0,3.000000119E-2,8.295000345E-2,9.745050430E0
1.292235428E0,2.505000122E-2,1.069500074E-1,9.709050179E0
1.294223966E0,1.995000057E-2,1.050000042E-1,9.745050430E0
1.296212327E0,1.500000060E-2,9.000000358E-2,9.733050346E0
1.298200865E0,1.800000109E-2,1.189500093E-1,9.676050186E0
1.300189250E0,1.995000057E-2,9.495000541E-2,9.769050598E0
1.302177558E0,2.205000073E-2,1.189500093E-1,9.750000000E0
1.304166096E0,1.050000079E-3,1.050000042E-1,9.685050011E0
1.306154711E0,3.000000026E-3,9.495000541E-2,9.766950607E0
1.308143019E0,3.000000026E-3,9.000000358E-2,9.751950264E0
1.310131404E0,1.050000079E-3,7.800000161E-2,9.733050346E0
1.312119942E0,-4.950000439E-3,8.100000024E-2,9.754950523E0
1.314108327E0,-1.005000062E-2,7.800000161E-2,9.745050430E0
1.316096865E0,-7.950000465E-3,8.295000345E-2,9.736050606E0
1.318085250E0,-1.005000062E-2,9.300000221E-2,9.766950607E0
1.320073817E0,-4.950000439E-3,8.100000024E-2,9.690000534E0
1.322062202E0,0.000000000E0,8.100000024E-2,9.718950272E0
1.324050740E0,0.000000000E0,6.405000389E-2,9.739950180E0
1.326039048E0,1.050000079E-3,6.599999964E-2,9.724050522E0
1.328027433E0,-1.500000060E-2,5.700000376E-2,9.724050522E0
1.330016038E0,0.000000000E0,4.695000127E-2,9.691950798E0
1.332004346E0,-4.950000439E-3,5.895000324E-2,9.727950096E0
1.333992884E0,-1.005000062E-2,4.695000127E-2,9.733050346E0
1.335981269E0,-1.005000062E-2,4.500000179E-2,9.703950882E0
1.337969807E0,1.050000079E-3,5.400000140E-2,9.757050514E0
1.339958192E0,-4.950000439E-3,4.695000127E-2,9.724050522E0
1.341946481E0,3.000000026E-3,3.495000303E-2,9.730950356E0
1.343935096E0,-1.005000062E-2,2.805000171E-2,9.730950356E0
1.345923404E0,-4.950000439E-3,4.005000368E-2,9.750000000E0
1.347911942E0,-3.000000026E-3,4.695000127E-2,9.714000702E0
1.349900327E0,-7.950000465E-3,7.605000585E-2,9.739950180E0
1.351888942E0,3.000000026E-3,4.995000362E-2,9.733050346E0
1.353877495E0,0.000000000E0,6.195000187E-2,9.733050346E0
1.355865802E0,-4.950000439E-3,5.400000140E-2,9.736050606E0
1.357854187E0,7.950000465E-3,5.700000376E-2,9.736050606E0
1.359842726E0,3.000000026E-3,5.400000140E-2,9.721050262E0
1.361831110E0,3.000000026E-3,6.195000187E-2,9.739950180E0
1.363819649E0,0.000000000E0,6.599999964E-2,9.742950439E0
1.365808063E0,3.000000026E-3,5.895000324E-2,9.726000786E0
1.367796602E0,-4.950000439E-3,7.395000011E-2,9.726000786E0
1.369784909E0,-1.005000062E-2,7.605000585E-2,9.733050346E0
1.371773294E0,-4.950000439E-3,9.000000358E-2,9.727950096E0
1.373761909E0,3.000000026E-3,8.595000207E-2,9.721050262E0
1.375750448E0,1.500000060E-2,1.000500023E-1,9.724050522E0
1.377738775E0,-3.000000026E-3,8.805000782E-2,9.709050179E0
1.379727082E0,1.305000018E-2,1.000500023E-1,9.721050262E0
1.381715698E0,2.505000122E-2,1.020000055E-1,9.745050430E0
1.383704082E0,2.205000073E-2,1.099500060E-1,9.721050262E0
1.385692621E0,1.500000060E-2,9.495000541E-2,9.736050606E0
1.387681005E0,1.995000057E-2,1.120500043E-1,9.721050262E0
1.389669511E0,3.900000080E-2,1.020000055E-1,9.757050514E0
1.391657895E0,1.500000060E-2,1.170000061E-1,9.724050522E0
1.393646203E0,1.500000060E-2,1.170000061E-1,9.736050606E0
1.395634819E0,1.995000057E-2,1.099500060E-1,9.736050606E0
1.397623126E0,3.405000269E-2,1.170000061E-1,9.742950439E0
1.399611665E0,3.195000067E-2,9.000000358E-2,9.747000694E0
1.401600053E0,3.000000119E-2,9.495000541E-2,9.726000786E0
1.403588592E0,3.705000132E-2,1.000500023E-1,9.745050430E0
1.405576976E0,4.605000094E-2,1.050000042E-1,9.724050522E0
1.407565515E0,3.900000080E-2,1.000500023E-1,9.733050346E0
1.409553900E0,3.405000269E-2,1.069500074E-1,9.736050606E0
1.411542438E0,2.505000122E-2,1.120500043E-1,9.709050179E0
1.413530838E0,2.505000122E-2,1.050000042E-1,9.733050346E0
1.415519145E0,3.900000080E-2,1.120500043E-1,9.727950096E0
1.417507684E0,3.705000132E-2,9.000000358E-2,9.736050606E0
1.419496299E0,1.005000062E-2,7.395000011E-2,9.733050346E0
1.421484607E0,6.000000052E-3,8.295000345E-2,9.736050606E0
1.423472991E0,2.505000122E-2,7.605000585E-2,9.738000870E0
1.425461525E0,1.800000109E-2,9.300000221E-2,9.718950272E0
1.427455721E0,2.505000122E-2,7.800000161E-2,9.714000702E0
1.429449910E0,1.800000109E-2,7.395000011E-2,9.712050438E0
1.431426833E0,1.005000062E-2,8.805000782E-2,9.730950356E0
1.433415371E0,-4.950000439E-3,7.800000161E-2,9.715950012E0
1.435403679E0,6.000000052E-3,6.599999964E-2,9.712050438E0
1.437392063E0,1.995000057E-2,7.800000161E-2,9.715950012E0
1.439380602E0,1.050000079E-3,7.395000011E-2,9.703950882E0
1.441369217E0,7.950000465E-3,5.400000140E-2,9.700050354E0
1.443357602E0,1.305000018E-2,5.895000324E-2,9.709050179E0
1.445345910E0,3.000000026E-3,6.195000187E-2,9.724050522E0
1.447334448E0,1.050000079E-3,6.405000389E-2,9.721050262E0
1.449322833E0,-3.000000026E-3,5.205000192E-2,9.715950012E0
1.451311376E0,6.000000052E-3,6.405000389E-2,9.726000786E0
1.453299761E0,3.000000026E-3,7.395000011E-2,9.736050606E0
1.455288299E0,-3.000000026E-3,5.700000376E-2,9.739950180E0
1.457276684E0,3.000000026E-3,7.605000585E-2,9.736050606E0
1.459264992E0,-1.200000010E-2,6.599999964E-2,9.742950439E0
1.461253530E0,-4.950000439E-3,7.800000161E-2,9.730950356E0
1.463241905E0,-1.695000008E-2,6.599999964E-2,9.721050262E0
1.465230520E0,-3.000000026E-3,7.095000148E-2,9.730950356E0
1.467218828E0,-3.000000026E-3,5.895000324E-2,9.739950180E0
1.469207135E0,0.000000000E0,6.405000389E-2,9.738000870E0
1.471195751E0,1.005000062E-2,9.300000221E-2,9.739950180E0
1.473184289E0,0.000000000E0,5.895000324E-2,9.724050522E0
1.475172674E0,-3.000000026E-3,5.895000324E-2,9.727950096E0
1.477161212E0,1.005000062E-2,7.395000011E-2,9.738000870E0
1.479149597E0,7.950000465E-3,7.605000585E-2,9.718950272E0
1.481137905E0,1.005000062E-2,7.095000148E-2,9.733050346E0
1.483126443E0,7.950000465E-3,6.900000572E-2,9.750000000E0
1.485115059E0,1.995000057E-2,6.900000572E-2,9.754950523E0
1.487103376E0,1.005000062E-2,8.295000345E-2,9.738000870E0
1.489091761E0,1.800000109E-2,7.800000161E-2,9.747000694E0
1.491080299E0,1.995000057E-2,8.295000345E-2,9.762000084E0
1.493068684E0,1.800000109E-2,8.595000207E-2,9.762000084E0
1.495057222E0,4.200000316E-2,8.805000782E-2,9.763950348E0
1.497045607E0,1.800000109E-2,1.020000055E-1,9.739950180E0
1.499034151E0,2.205000073E-2,9.300000221E-2,9.759000778E0
1.501022458E0,2.700000070E-2,1.050000042E-1,9.762000084E0
1.503011074E0,1.800000109E-2,1.020000055E-1,9.750000000E0
1.504999381E0,2.505000122E-2,1.140000075E-1,9.757050514E0
1.506987766E0,3.000000119E-2,9.495000541E-2,9.750000000E0
1.508976381E0,3.900000080E-2,1.020000055E-1,9.751950264E0
1.510964665E0,3.000000119E-2,1.069500074E-1,9.774000168E0
1.512953203E0,3.195000067E-2,1.069500074E-1,9.750000000E0
1.514941588E0,2.700000070E-2,1.120500043E-1,9.757050514E0
1.516930127E0,1.005000062E-2,1.069500074E-1,9.745050430E0
1.518918511E0,2.505000122E-2,9.795000404E-2,9.750000000E0
1.520907050E0,2.700000070E-2,1.000500023E-1,9.733050346E0
1.522895448E0,1.995000057E-2,1.140000075E-1,9.733050346E0
1.524883756E0,2.505000122E-2,9.300000221E-2,9.747000694E0
1.526872294E0,3.000000119E-2,9.495000541E-2,9.751950264E0
1.528860679E0,2.205000073E-2,8.595000207E-2,9.742950439E0
1.530849294E0,1.500000060E-2,9.795000404E-2,9.747000694E0
1.532837833E0,1.800000109E-2,9.300000221E-2,9.738000870E0
1.534826146E0,1.995000057E-2,8.595000207E-2,9.738000870E0
1.536814530E0,2.505000122E-2,9.000000358E-2,9.730950356E0
1.538803069E0,1.500000060E-2,7.605000585E-2,9.738000870E0
1.540791453E0,1.305000018E-2,7.605000585E-2,9.747000694E0
1.542779992E0,1.995000057E-2,7.800000161E-2,9.738000870E0
1.544768376E0,1.305000018E-2,8.100000024E-2,9.738000870E0
1.546756919E0,2.205000073E-2,6.405000389E-2,9.754950523E0
1.548745227E0,2.505000122E-2,6.195000187E-2,9.757050514E0
1.550733611E0,1.995000057E-2,6.900000572E-2,9.757050514E0
1.552722150E0,1.050000079E-3,6.900000572E-2,9.750000000E0
1.554710765E0,1.800000109E-2,7.800000161E-2,9.769050598E0
1.556699073E0,3.705000132E-2,6.599999964E-2,9.762000084E0
1.558687376E0,2.505000122E-2,7.395000011E-2,9.769050598E0
1.560675992E0,1.050000079E-3,6.405000389E-2,9.750000000E0
1.562664376E0,7.950000465E-3,5.400000140E-2,9.762000084E0
1.564652915E0,3.000000119E-2,4.305000231E-2,9.763950348E0
1.566641300E0,1.500000060E-2,7.395000011E-2,9.751950264E0
1.568629838E0,2.505000122E-2,5.895000324E-2,9.759000778E0
1.570618208E0,3.000000026E-3,6.195000187E-2,9.733050346E0
1.572606515E0,1.800000109E-2,6.195000187E-2,9.739950180E0
1.574595131E0,1.995000057E-2,5.700000376E-2,9.736050606E0
1.576583669E0,1.305000018E-2,6.405000389E-2,9.736050606E0
1.578571977E0,1.305000018E-2,5.700000376E-2,9.747000694E0
1.580560361E0,3.000000026E-3,7.605000585E-2,9.739950180E0
1.582548910E0,-4.950000439E-3,7.395000011E-2,9.742950439E0
1.584537295E0,1.305000018E-2,5.895000324E-2,9.733050346E0
1.586525833E0,2.205000073E-2,6.195000187E-2,9.726000786E0
1.588514218E0,6.000000052E-3,7.095000148E-2,9.733050346E0
1.590502525E0,1.005000062E-2,6.195000187E-2,9.724050522E0
1.592491141E0,1.305000018E-2,8.595000207E-2,9.715950012E0
1.594479443E0,6.000000052E-3,8.100000024E-2,9.706950188E0
1.596467982E0,3.195000067E-2,7.800000161E-2,9.738000870E0
1.598456597E0,1.800000109E-2,9.300000221E-2,9.727950096E0
1.600444905E0,6.000000052E-3,8.595000207E-2,9.714000702E0
1.602433290E0,6.000000052E-3,9.300000221E-2,9.703950882E0
1.604421828E0,1.305000018E-2,1.020000055E-1,9.714000702E0
1.606410213E0,2.505000122E-2,9.000000358E-2,9.724050522E0
1.608398751E0,2.700000070E-2,1.069500074E-1,9.733050346E0
1.610387136E0,2.205000073E-2,1.140000075E-1,9.726000786E0
1.612375674E0,2.205000073E-2,9.495000541E-2,9.715950012E0
1.614364059E0,3.705000132E-2,8.595000207E-2,9.733050346E0
1.616352381E0,1.500000060E-2,9.000000358E-2,9.727950096E0
1.618340919E0,2.505000122E-2,8.595000207E-2,9.721050262E0
1.620329534E0,2.505000122E-2,9.795000404E-2,9.730950356E0
1.622317919E0,1.500000060E-2,1.000500023E-1,9.736050606E0
1.624306227E0,2.700000070E-2,9.300000221E-2,9.721050262E0
1.626300500E0,1.800000109E-2,9.300000221E-2,9.724050522E0
1.628294765E0,3.195000067E-2,1.020000055E-1,9.702000618E0
1.630271688E0,1.800000109E-2,7.800000161E-2,9.727950096E0
1.632260073E0,2.700000070E-2,8.805000782E-2,9.721050262E0
1.634248611E0,1.995000057E-2,9.000000358E-2,9.714000702E0
1.636236996E0,3.405000269E-2,8.805000782E-2,9.709050179E0
1.638225304E0,1.500000060E-2,7.395000011E-2,9.703950882E0
1.640213852E0,1.005000062E-2,7.395000011E-2,9.718950272E0
1.642202237E0,2.505000122E-2,7.605000585E-2,9.724050522E0
1.644190852E0,1.800000109E-2,5.895000324E-2,9.714000702E0
1.646179160E0,1.500000060E-2,9.495000541E-2,9.727950096E0
1.648167698E0,3.705000132E-2,7.800000161E-2,9.739950180E0
1.650156083E0,6.000000052E-3,6.195000187E-2,9.727950096E0
1.652144606E0,1.050000079E-3,7.095000148E-2,9.724050522E0
1.654132991E0,1.800000109E-2,6.900000572E-2,9.724050522E0
1.656121530E0,3.000000119E-2,6.599999964E-2,9.730950356E0
1.658109914E0,1.800000109E-2,4.695000127E-2,9.721050262E0
1.660098453E0,1.800000109E-2,7.095000148E-2,9.714000702E0
1.662086760E0,-3.000000026E-3,6.195000187E-2,9.724050522E0
1.664075386E0,3.000000026E-3,6.599999964E-2,9.730950356E0
1.666063770E0,1.995000057E-2,7.395000011E-2,9.733050346E0
1.668052078E0,1.500000060E-2,5.895000324E-2,9.727950096E0
1.670040616E0,1.305000018E-2,6.195000187E-2,9.738000870E0
1.672029001E0,7.950000465E-3,6.405000389E-2,9.733050346E0
1.674017540E0,6.000000052E-3,6.195000187E-2,9.750000000E0
1.676005924E0,7.950000465E-3,7.605000585E-2,9.738000870E0
1.677994463E0,0.000000000E0,7.095000148E-2,9.733050346E0
1.679982847E0,3.000000119E-2,5.400000140E-2,9.747000694E0
1.681971386E0,7.950000465E-3,5.895000324E-2,9.751950264E0
1.683959688E0,2.700000070E-2,6.599999964E-2,9.739950180E0
1.685948073E0,2.700000070E-2,6.900000572E-2,9.730950356E0
1.687936688E0,1.995000057E-2,7.605000585E-2,9.727950096E0
1.689925227E0,2.505000122E-2,7.605000585E-2,9.726000786E0
1.691913535E0,3.195000067E-2,7.605000585E-2,9.739950180E0
1.693901919E0,1.995000057E-2,8.595000207E-2,9.736050606E0
1.695890468E0,4.200000316E-2,8.100000024E-2,9.727950096E0
1.697878852E0,1.800000109E-2,8.295000345E-2,9.742950439E0
1.699867391E0,1.995000057E-2,8.295000345E-2,9.733050346E0
1.701855775E0,2.505000122E-2,9.300000221E-2,9.742950439E0
1.703844314E0,2.700000070E-2,9.795000404E-2,9.738000870E0
1.705832698E0,3.000000119E-2,9.000000358E-2,9.750000000E0
1.707820991E0,3.195000067E-2,8.805000782E-2,9.727950096E0
1.709809607E0,2.205000073E-2,8.805000782E-2,9.727950096E0
1.711798145E0,4.395000264E-2,9.300000221E-2,9.733050346E0
1.713786453E0,3.195000067E-2,9.495000541E-2,9.738000870E0
1.715774837E0,3.900000080E-2,9.000000358E-2,9.733050346E0
1.717763376E0,3.195000067E-2,1.050000042E-1,9.736050606E0
1.719751765E0,3.405000269E-2,1.020000055E-1,9.709050179E0
1.721740304E0,2.505000122E-2,1.000500023E-1,9.709050179E0
1.723728612E0,1.995000057E-2,1.170000061E-1,9.730950356E0
1.725717227E0,1.050000079E-3,9.300000221E-2,9.730950356E0
1.727705612E0,1.500000060E-2,9.795000404E-2,9.721050262E0
1.729693919E0,3.000000119E-2,8.805000782E-2,9.730950356E0
1.731682434E0,2.505000122E-2,7.605000585E-2,9.727950096E0
1.733671049E0,2.700000070E-2,8.295000345E-2,9.733050346E0
1.735659357E0,1.005000062E-2,7.800000161E-2,9.724050522E0
1.737647741E0,1.305000018E-2,6.900000572E-2,9.721050262E0
1.739636280E0,6.000000052E-3,8.595000207E-2,9.726000786E0
1.741624665E0,1.800000109E-2,8.295000345E-2,9.712050438E0
1.743613173E0,1.305000018E-2,7.800000161E-2,9.703950882E0
1.745601558E0,1.500000060E-2,6.599999964E-2,9.721050262E0
1.747590096E0,-1.200000010E-2,8.100000024E-2,9.715950012E0
1.749578481E0,-3.000000026E-3,6.195000187E-2,9.826050758E0
1.751567019E0,-1.200000010E-2,5.895000324E-2,9.700050354E0
1.753555351E0,-1.695000008E-2,4.695000127E-2,9.730950356E0
1.755543966E0,-1.500000060E-2,6.195000187E-2,9.714000702E0
1.757532274E0,-1.695000008E-2,4.305000231E-2,9.733050346E0
1.759520659E0,-1.500000060E-2,5.700000376E-2,9.726000786E0
1.761509274E0,0.000000000E0,5.700000376E-2,9.709050179E0
1.763497812E0,6.000000052E-3,5.700000376E-2,9.747000694E0
1.765486139E0,-3.000000026E-3,5.205000192E-2,9.733050346E0
1.767474524E0,7.950000465E-3,4.305000231E-2,9.738000870E0
1.769463062E0,1.500000060E-2,5.895000324E-2,9.747000694E0
1.771451447E0,3.000000026E-3,5.700000376E-2,9.738000870E0
1.773439985E0,1.005000062E-2,5.700000376E-2,9.742950439E0
1.775428293E0,3.000000026E-3,5.895000324E-2,9.751950264E0
1.777416918E0,3.195000067E-2,5.895000324E-2,9.715950012E0
1.779405303E0,1.500000060E-2,6.405000389E-2,9.714000702E0
1.781393611E0,2.205000073E-2,5.700000376E-2,9.747000694E0
1.783382149E0,2.505000122E-2,6.599999964E-2,9.718950272E0
1.785370765E0,3.195000067E-2,7.395000011E-2,9.721050262E0
1.787359072E0,1.995000057E-2,8.295000345E-2,9.727950096E0
1.789347433E0,2.700000070E-2,7.095000148E-2,9.733050346E0
1.791335971E0,3.705000132E-2,7.800000161E-2,9.714000702E0
1.793324356E0,3.000000119E-2,9.000000358E-2,9.726000786E0
1.795312894E0,3.195000067E-2,7.095000148E-2,9.712050438E0
1.797301279E0,1.005000062E-2,9.300000221E-2,9.715950012E0
1.799289818E0,1.995000057E-2,6.599999964E-2,9.759000778E0
1.801278192E0,2.700000070E-2,9.000000358E-2,9.715950012E0
1.803266500E0,1.800000109E-2,1.050000042E-1,9.730950356E0
1.805255038E0,3.000000119E-2,9.495000541E-2,9.726000786E0
1.807243654E0,2.205000073E-2,1.140000075E-1,9.747000694E0
1.809231961E0,3.195000067E-2,1.000500023E-1,9.733050346E0
1.811220346E0,1.995000057E-2,1.140000075E-1,9.747000694E0
1.813208649E0,3.000000119E-2,1.170000061E-1,9.703950882E0
1.815197264E0,1.050000079E-3,1.020000055E-1,9.726000786E0
1.817185803E0,1.305000018E-2,1.219500080E-1,9.721050262E0
1.819174187E0,2.205000073E-2,1.140000075E-1,9.712050438E0
1.821162495E0,2.700000070E-2,1.069500074E-1,9.712050438E0
1.823151110E0,1.500000060E-2,1.140000075E-1,9.726000786E0
1.825139418E0,1.305000018E-2,1.170000061E-1,9.709050179E0
1.827133691E0,7.950000465E-3,1.020000055E-1,9.747000694E0
1.829127956E0,-7.950000465E-3,1.000500023E-1,9.706950188E0
1.831104956E0,-3.000000026E-3,9.300000221E-2,9.714000702E0
1.833093264E0,1.005000062E-2,1.020000055E-1,9.736050606E0
1.835081813E0,1.305000018E-2,9.795000404E-2,9.703950882E0
1.837070197E0,1.995000057E-2,1.069500074E-1,9.727950096E0
1.839058736E0,6.000000052E-3,1.050000042E-1,9.747000694E0
1.841047120E0,7.950000465E-3,1.140000075E-1,9.736050606E0
1.843035659E0,0.000000000E0,9.000000358E-2,9.754950523E0
1.845024043E0,-3.000000026E-3,8.100000024E-2,9.714000702E0
1.847012356E0,-3.000000026E-3,8.100000024E-2,9.715950012E0
1.849000895E0,1.305000018E-2,8.100000024E-2,9.736050606E0
1.850989510E0,6.000000052E-3,6.195000187E-2,9.724050522E0
1.852977895E0,0.000000000E0,9.300000221E-2,9.715950012E0
1.854966433E0,6.000000052E-3,8.805000782E-2,9.714000702E0
1.856954741E0,1.005000062E-2,7.395000011E-2,9.726000786E0
1.858943120E0,1.005000062E-2,7.395000011E-2,9.757050514E0
1.860931659E0,-3.000000026E-3,8.100000024E-2,9.712050438E0
1.862920043E0,1.500000060E-2,7.605000585E-2,9.712050438E0
1.864908351E0,1.050000079E-3,7.605000585E-2,9.750000000E0
1.866896890E0,1.005000062E-2,5.895000324E-2,9.739950180E0
1.868885505E0,1.800000109E-2,7.095000148E-2,9.730950356E0
1.870873813E0,3.000000026E-3,7.395000011E-2,9.754950523E0
1.872862197E0,1.050000079E-3,7.095000148E-2,9.715950012E0
1.874850813E0,1.050000079E-3,7.095000148E-2,9.715950012E0
1.876839120E0,-1.500000060E-2,7.605000585E-2,9.745050430E0
1.878827659E0,3.000000026E-3,7.800000161E-2,9.703950882E0
1.880816044E0,1.005000062E-2,7.095000148E-2,9.727950096E0
1.882804563E0,2.505000122E-2,5.700000376E-2,9.738000870E0
1.884792948E0,-4.950000439E-3,9.300000221E-2,9.712050438E0
1.886781486E0,3.000000026E-3,8.100000024E-2,9.726000786E0
1.888769871E0,1.005000062E-2,7.605000585E-2,9.721050262E0
1.890758409E0,-4.950000439E-3,7.605000585E-2,9.747000694E0
1.892746794E0,1.800000109E-2,7.800000161E-2,9.738000870E0
1.894735101E0,1.995000057E-2,9.795000404E-2,9.727950096E0
1.896723717E0,1.500000060E-2,9.300000221E-2,9.715950012E0
1.898712255E0,3.195000067E-2,9.495000541E-2,9.712050438E0
1.900700563E0,3.900000080E-2,1.020000055E-1,9.724050522E0
1.902688871E0,1.995000057E-2,9.000000358E-2,9.727950096E0
1.904677255E0,3.705000132E-2,8.805000782E-2,9.714000702E0
1.906665880E0,3.000000119E-2,8.805000782E-2,9.736050606E0
1.908654418E0,3.405000269E-2,8.595000207E-2,9.738000870E0
1.910642803E0,5.100000277E-2,9.795000404E-2,9.736050606E0
1.912631341E0,3.195000067E-2,8.595000207E-2,9.738000870E0
1.914619726E0,4.200000316E-2,8.100000024E-2,9.721050262E0
1.916608034E0,4.200000316E-2,9.795000404E-2,9.727950096E0
1.918596587E0,3.405000269E-2,1.120500043E-1,9.724050522E0
1.920585202E0,6.795000285E-2,8.805000782E-2,9.738000870E0
1.922573510E0,3.900000080E-2,9.000000358E-2,9.726000786E0
1.924561895E0,3.405000269E-2,1.050000042E-1,9.721050262E0
1.926550433E0,3.705000132E-2,9.000000358E-2,9.726000786E0
1.928538818E0,2.700000070E-2,9.495000541E-2,9.730950356E0
1.930527376E0,3.900000080E-2,7.605000585E-2,9.724050522E0
1.932515761E0,1.995000057E-2,9.300000221E-2,9.718950272E0
1.934504299E0,2.700000070E-2,7.800000161E-2,9.742950439E0
1.936492684E0,2.505000122E-2,6.900000572E-2,9.724050522E0
1.938480992E0,3.000000119E-2,8.805000782E-2,9.718950272E0
1.940469607E0,1.995000057E-2,9.300000221E-2,9.721050262E0
1.942457891E0,1.995000057E-2,8.100000024E-2,9.721050262E0
1.944446506E0,2.505000122E-2,9.495000541E-2,9.724050522E0
1.946434814E0,1.800000109E-2,7.800000161E-2,9.730950356E0
1.948423352E0,0.000000000E0,7.395000011E-2,9.730950356E0
1.950411968E0,-4.950000439E-3,5.895000324E-2,9.736050606E0
1.952400275E0,6.000000052E-3,7.095000148E-2,9.742950439E0
1.954388573E0,-1.200000010E-2,8.100000024E-2,9.724050522E0
1.956376958E0,-1.500000060E-2,7.395000011E-2,9.733050346E0
1.958365573E0,-3.000000026E-3,7.395000011E-2,9.724050522E0
1.960354112E0,-1.995000057E-2,7.395000011E-2,9.718950272E0
1.962342419E0,3.000000026E-3,7.605000585E-2,9.727950096E0
1.964331021E0,-1.500000060E-2,6.405000389E-2,9.750000000E0
1.966319328E0,-1.695000008E-2,6.195000187E-2,9.739950180E0
1.968307944E0,-2.205000073E-2,7.095000148E-2,9.736050606E0
1.970296251E0,1.005000062E-2,5.895000324E-2,9.739950180E0
1.972284867E0,-1.500000060E-2,6.599999964E-2,9.727950096E0
1.974273175E0,7.950000465E-3,6.195000187E-2,9.721050262E0
1.976261559E0,-1.500000060E-2,6.195000187E-2,9.733050346E0
1.978250098E0,-2.400000021E-2,8.100000024E-2,9.726000786E0
1.980238482E0,1.005000062E-2,5.895000324E-2,9.738000870E0
1.982227021E0,0.000000000E0,6.900000572E-2,9.726000786E0
1.984215405E0,3.000000026E-3,5.895000324E-2,9.727950096E0
1.986203944E0,0.000000000E0,5.400000140E-2,9.736050606E0
1.988192308E0,-7.950000465E-3,6.195000187E-2,9.727950096E0
1.990180616E0,6.000000052E-3,7.095000148E-2,9.747000694E0
1.992169155E0,1.500000060E-2,7.395000011E-2,9.739950180E0
1.994157539E0,2.700000070E-2,6.405000389E-2,9.730950356E0
1.996146155E0,2.205000073E-2,7.605000585E-2,9.751950264E0
1.998134462E0,1.800000109E-2,8.805000782E-2,9.747000694E0
2.000123021E0,3.195000067E-2,6.900000572E-2,9.726000786E0
2.002111405E0,2.505000122E-2,6.900000572E-2,9.712050438E0
2.004099944E0,2.700000070E-2,6.405000389E-2,9.721050262E0
2.006088328E0,2.205000073E-2,9.000000358E-2,9.730950356E0
2.008076867E0,3.705000132E-2,7.095000148E-2,9.721050262E0
2.010065252E0,1.995000057E-2,9.300000221E-2,9.726000786E0
2.012053559E0,3.195000067E-2,7.800000161E-2,9.726000786E0
2.014042098E0,3.195000067E-2,9.495000541E-2,9.718950272E0
2.016030713E0,2.505000122E-2,9.000000358E-2,9.715950012E0
2.018019098E0,2.205000073E-2,9.495000541E-2,9.706950188E0
2.020007636E0,2.505000122E-2,9.795000404E-2,9.726000786E0
2.021995944E0,1.050000079E-3,9.300000221E-2,9.738000870E0
2.023984329E0,1.500000060E-2,1.099500060E-1,9.745050430E0
2.025978601E0,3.405000269E-2,8.595000207E-2,9.739950180E0
2.027972868E0,1.500000060E-2,8.805000782E-2,9.750000000E0
2.029949790E0,3.195000067E-2,8.805000782E-2,9.750000000E0
2.031938098E0,3.000000119E-2,9.300000221E-2,9.745050430E0
2.033926679E0,2.700000070E-2,7.605000585E-2,9.738000870E0
2.035914987E0,1.800000109E-2,8.595000207E-2,9.738000870E0
2.037903371E0,6.000000052E-3,8.100000024E-2,9.747000694E0
2.039891987E0,1.050000079E-3,9.300000221E-2,9.742950439E0
2.041880295E0,1.050000079E-3,7.395000011E-2,9.721050262E0
2.043868833E0,3.000000119E-2,8.805000782E-2,9.721050262E0
2.045857218E0,7.950000465E-3,7.605000585E-2,9.739950180E0
2.047845756E0,6.000000052E-3,8.100000024E-2,9.730950356E0
2.049834141E0,2.505000122E-2,7.395000011E-2,9.738000870E0
2.051822679E0,2.205000073E-2,5.400000140E-2,9.726000786E0
2.053811064E0,3.195000067E-2,6.405000389E-2,9.745050430E0
2.055799602E0,1.800000109E-2,5.700000376E-2,9.726000786E0
2.057787987E0,1.500000060E-2,5.700000376E-2,9.726000786E0
2.059776295E0,2.505000122E-2,5.700000376E-2,9.726000786E0
2.061764910E0,1.995000057E-2,7.800000161E-2,9.726000786E0
2.063753218E0,2.700000070E-2,6.900000572E-2,9.727950096E0
2.065741756E0,1.995000057E-2,6.599999964E-2,9.742950439E0
2.067730372E0,1.995000057E-2,5.400000140E-2,9.721050262E0
2.069718761E0,3.705000132E-2,6.900000572E-2,9.721050262E0
2.071707069E0,1.005000062E-2,7.605000585E-2,9.736050606E0
2.073695607E0,3.000000119E-2,5.895000324E-2,9.706950188E0
2.075683992E0,7.950000465E-3,6.900000572E-2,9.721050262E0
2.077672530E0,3.000000026E-3,7.395000011E-2,9.721050262E0
2.079660915E0,3.000000026E-3,7.095000148E-2,9.726000786E0
2.081649458E0,-3.000000026E-3,6.900000572E-2,9.706950188E0
2.083637765E0,3.000000026E-3,6.405000389E-2,9.715950012E0
2.085626381E0,1.050000079E-3,6.405000389E-2,9.718950272E0
2.087614688E0,-3.000000026E-3,6.195000187E-2,9.721050262E0
2.089603073E0,-3.000000026E-3,7.095000148E-2,9.724050522E0
2.091591688E0,-7.950000465E-3,9.000000358E-2,9.739950180E0
2.093579977E0,3.000000026E-3,6.195000187E-2,9.718950272E0
2.095568515E0,-1.005000062E-2,6.405000389E-2,9.714000702E0
2.097556900E0,-7.950000465E-3,7.800000161E-2,9.727950096E0
2.099545439E0,-3.000000026E-3,8.595000207E-2,9.739950180E0
2.101533823E0,-3.000000026E-3,8.100000024E-2,9.730950356E0
2.103522362E0,-4.950000439E-3,8.595000207E-2,9.738000870E0
2.105510736E0,1.050000079E-3,1.020000055E-1,9.726000786E0
2.107499275E0,-1.500000060E-2,9.300000221E-2,9.727950096E0
2.109487659E0,-3.000000026E-3,9.795000404E-2,9.739950180E0
2.111475967E0,-7.950000465E-3,9.000000358E-2,9.727950096E0
2.113464582E0,1.050000079E-3,8.295000345E-2,9.736050606E0
2.115452890E0,-7.950000465E-3,9.300000221E-2,9.718950272E0
2.117441434E0,-1.005000062E-2,9.300000221E-2,9.721050262E0
2.119429818E0,1.500000060E-2,1.050000042E-1,9.730950356E0
2.121418126E0,7.950000465E-3,8.295000345E-2,9.721050262E0
2.123406741E0,2.205000073E-2,1.069500074E-1,9.730950356E0
2.125395280E0,1.995000057E-2,8.595000207E-2,9.714000702E0
2.127383664E0,1.305000018E-2,9.000000358E-2,9.736050606E0
2.129372203E0,2.505000122E-2,9.495000541E-2,9.736050606E0
2.131360511E0,2.205000073E-2,9.000000358E-2,9.733050346E0
2.133348895E0,2.700000070E-2,1.000500023E-1,9.738000870E0
2.135337434E0,4.905000329E-2,1.000500023E-1,9.738000870E0
2.137326049E0,3.195000067E-2,9.795000404E-2,9.736050606E0
2.139314357E0,4.905000329E-2,8.295000345E-2,9.742950439E0
2.141302741E0,3.705000132E-2,9.495000541E-2,9.739950180E0
2.143291357E0,2.205000073E-2,1.020000055E-1,9.739950180E0
2.145279664E0,3.705000132E-2,8.595000207E-2,9.718950272E0
2.147268203E0,2.505000122E-2,9.000000358E-2,9.724050522E0
2.149256588E0,3.405000269E-2,9.300000221E-2,9.730950356E0
2.151245126E0,4.395000264E-2,8.100000024E-2,9.730950356E0
2.153233545E0,2.700000070E-2,9.795000404E-2,9.736050606E0
2.155221852E0,3.705000132E-2,7.800000161E-2,9.742950439E0
2.157210391E0,4.395000264E-2,9.000000358E-2,9.730950356E0
2.159199006E0,4.200000316E-2,8.100000024E-2,9.727950096E0
2.161187391E0,3.195000067E-2,8.805000782E-2,9.709050179E0
2.163175693E0,3.195000067E-2,7.395000011E-2,9.718950272E0
2.165164309E0,4.395000264E-2,8.595000207E-2,9.718950272E0
2.167152847E0,3.705000132E-2,6.405000389E-2,9.724050522E0
2.169141155E0,2.505000122E-2,7.395000011E-2,9.726000786E0
2.171129540E0,4.905000329E-2,6.405000389E-2,9.724050522E0
2.173117847E0,1.800000109E-2,7.605000585E-2,9.730950356E0
2.175106487E0,1.995000057E-2,7.800000161E-2,9.726000786E0
2.177095025E0,2.205000073E-2,8.295000345E-2,9.726000786E0
2.179083410E0,2.700000070E-2,6.195000187E-2,9.721050262E0
2.181071948E0,2.505000122E-2,7.605000585E-2,9.751950264E0
2.183060333E0,1.800000109E-2,7.605000585E-2,9.745050430E0
2.185048641E0,2.205000073E-2,7.605000585E-2,9.745050430E0
2.187037160E0,3.195000067E-2,6.405000389E-2,9.745050430E0
2.189025775E0,3.705000132E-2,7.095000148E-2,9.747000694E0
2.191014083E0,3.195000067E-2,5.895000324E-2,9.738000870E0
2.193002468E0,1.500000060E-2,5.700000376E-2,9.745050430E0
2.194991006E0,2.505000122E-2,5.895000324E-2,9.736050606E0
2.196979391E0,6.000000052E-3,5.700000376E-2,9.727950096E0
2.198967914E0,1.800000109E-2,4.500000179E-2,9.733050346E0
2.200956299E0,1.995000057E-2,7.395000011E-2,9.736050606E0
2.202944837E0,2.205000073E-2,4.995000362E-2,9.726000786E0
2.204933222E0,1.305000018E-2,6.405000389E-2,9.715950012E0
2.206921530E0,1.995000057E-2,6.405000389E-2,9.721050262E0
2.208910068E0,1.500000060E-2,6.195000187E-2,9.733050346E0
2.210898443E0,1.305000018E-2,5.205000192E-2,9.727950096E0
2.212887058E0,1.500000060E-2,6.405000389E-2,9.724050522E0
2.214875366E0,1.305000018E-2,6.599999964E-2,9.724050522E0
2.216863904E0,1.800000109E-2,7.095000148E-2,9.727950096E0
2.218852289E0,7.950000465E-3,6.195000187E-2,9.703950882E0
2.220840827E0,1.050000079E-3,5.895000324E-2,9.733050346E0
2.222829222E0,1.995000057E-2,7.095000148E-2,9.733050346E0
2.224817530E0,1.500000060E-2,7.800000161E-2,9.730950356E0
2.226811842E0,3.000000026E-3,8.805000782E-2,9.739950180E0
2.228806145E0,0.000000000E0,8.805000782E-2,9.721050262E0
2.230782991E0,1.005000062E-2,8.100000024E-2,9.727950096E0
2.232771376E0,0.000000000E0,7.800000161E-2,9.738000870E0
2.234759977E0,7.950000465E-3,8.295000345E-2,9.724050522E0
2.236748516E0,1.005000062E-2,6.405000389E-2,9.715950012E0
2.238736824E0,-1.005000062E-2,9.000000358E-2,9.714000702E0
2.240725439E0,-1.005000062E-2,7.800000161E-2,9.715950012E0
2.242713747E0,-1.200000010E-2,9.795000404E-2,9.742950439E0
2.244702131E0,-7.950000465E-3,1.000500023E-1,9.733050346E0
2.246690665E0,-3.000000026E-3,9.300000221E-2,9.718950272E0
2.248679049E0,0.000000000E0,1.069500074E-1,9.751950264E0
2.250667588E0,-7.950000465E-3,9.495000541E-2,9.727950096E0
2.252655972E0,-1.995000057E-2,8.595000207E-2,9.739950180E0
2.254644511E0,6.000000052E-3,9.000000358E-2,9.739950180E0
2.256632895E0,0.000000000E0,9.795000404E-2,9.750000000E0
2.258621448E0,0.000000000E0,6.900000572E-2,9.747000694E0
2.260609756E0,3.000000026E-3,1.050000042E-1,9.747000694E0
2.262598140E0,7.950000465E-3,8.100000024E-2,9.739950180E0
2.264586756E0,3.000000026E-3,8.295000345E-2,9.724050522E0
2.266575063E0,6.000000052E-3,8.595000207E-2,9.721050262E0
2.268563602E0,1.800000109E-2,7.095000148E-2,9.703950882E0
2.270552005E0,2.205000073E-2,7.800000161E-2,9.733050346E0
2.272540544E0,3.405000269E-2,8.595000207E-2,9.730950356E0
2.274528929E0,2.205000073E-2,6.900000572E-2,9.718950272E0
2.276517467E0,4.605000094E-2,6.900000572E-2,9.721050262E0
2.278505852E0,4.200000316E-2,7.800000161E-2,9.733050346E0
2.280494159E0,4.200000316E-2,7.800000161E-2,9.745050430E0
2.282482670E0,4.905000329E-2,7.605000585E-2,9.762000084E0
2.284471054E0,4.905000329E-2,7.395000011E-2,9.733050346E0
2.286459670E0,4.905000329E-2,7.095000148E-2,9.736050606E0
2.288448208E0,4.395000264E-2,7.800000161E-2,9.730950356E0
2.290436516E0,6.300000101E-2,7.605000585E-2,9.757050514E0
2.292424901E0,6.795000285E-2,1.000500023E-1,9.738000870E0
2.294413448E0,5.805000290E-2,7.395000011E-2,9.739950180E0
2.296401833E0,4.395000264E-2,9.000000358E-2,9.730950356E0
2.298390371E0,6.105000153E-2,8.805000782E-2,9.742950439E0
2.300378679E0,4.395000264E-2,8.595000207E-2,9.754950523E0
2.302367294E0,4.605000094E-2,9.000000358E-2,9.763950348E0
2.304355597E0,4.605000094E-2,8.295000345E-2,9.775950432E0
2.306343982E0,3.705000132E-2,8.295000345E-2,9.757050514E0
2.308332597E0,1.995000057E-2,8.805000782E-2,9.766950607E0
2.310321135E0,2.700000070E-2,8.595000207E-2,9.774000168E0
2.312309443E0,3.195000067E-2,7.605000585E-2,9.778950691E0
2.314297828E0,2.205000073E-2,9.000000358E-2,9.771000862E0
2.316286443E0,1.005000062E-2,7.605000585E-2,9.745050430E0
2.318274751E0,2.505000122E-2,8.595000207E-2,9.747000694E0
2.320263289E0,1.005000062E-2,7.605000585E-2,9.739950180E0
2.322251674E0,3.000000026E-3,9.795000404E-2,9.747000694E0
2.324240212E0,1.995000057E-2,1.000500023E-1,9.766950607E0
2.326228597E0,1.500000060E-2,8.100000024E-2,9.742950439E0
2.328217135E0,6.000000052E-3,9.495000541E-2,9.739950180E0
2.330205520E0,-7.950000465E-3,1.020000055E-1,9.766950607E0
2.332193828E0,-7.950000465E-3,9.300000221E-2,9.750000000E0
2.334182366E0,-4.950000439E-3,8.595000207E-2,9.757050514E0
2.336170751E0,-1.695000008E-2,9.795000404E-2,9.738000870E0
2.338159366E0,3.000000026E-3,1.099500060E-1,9.738000870E0
2.340147876E0,3.000000026E-3,9.495000541E-2,9.771000862E0
2.342136183E0,0.000000000E0,8.595000207E-2,9.738000870E0
2.344124568E0,6.000000052E-3,9.300000221E-2,9.751950264E0
2.346113106E0,7.950000465E-3,1.069500074E-1,9.738000870E0
2.348101491E0,-4.950000439E-3,1.000500023E-1,9.757050514E0
2.350090030E0,-3.000000026E-3,1.020000055E-1,9.747000694E0
2.352078352E0,-4.950000439E-3,1.000500023E-1,9.742950439E0
2.354066968E0,-3.000000026E-3,8.595000207E-2,9.747000694E0
2.356055275E0,-3.000000026E-3,1.069500074E-1,9.730950356E0
2.358043660E0,-1.005000062E-2,9.795000404E-2,9.751950264E0
2.360032198E0,-7.950000465E-3,1.000500023E-1,9.724050522E0
2.362020814E0,-4.950000439E-3,8.595000207E-2,9.736050606E0
2.364009112E0,-1.005000062E-2,9.795000404E-2,9.742950439E0
2.365997496E0,-2.205000073E-2,8.295000345E-2,9.750000000E0
2.367986035E0,-1.695000008E-2,9.495000541E-2,9.751950264E0
2.369974419E0,-2.400000021E-2,8.100000024E-2,9.757050514E0
2.371962958E0,-1.995000057E-2,8.595000207E-2,9.745050430E0
2.373951347E0,-1.200000010E-2,7.095000148E-2,9.730950356E0
2.375939886E0,-2.205000073E-2,7.605000585E-2,9.751950264E0
2.377928270E0,-4.950000439E-3,8.100000024E-2,9.751950264E0
2.379916578E0,1.050000079E-3,8.805000782E-2,9.754950523E0
2.381905193E0,-1.200000010E-2,8.295000345E-2,9.754950523E0
2.383893761E0,-3.000000026E-3,7.800000161E-2,9.762000084E0
2.385882146E0,-3.405000269E-2,8.595000207E-2,9.757050514E0
2.387870453E0,7.950000465E-3,7.800000161E-2,9.747000694E0
2.389858992E0,0.000000000E0,8.100000024E-2,9.762000084E0
2.391847376E0,6.000000052E-3,6.900000572E-2,9.750000000E0
2.393835915E0,1.305000018E-2,9.300000221E-2,9.739950180E0
2.395824294E0,1.800000109E-2,8.805000782E-2,9.751950264E0
2.397812833E0,6.000000052E-3,7.395000011E-2,9.747000694E0
2.399801218E0,1.005000062E-2,5.400000140E-2,9.754950523E0
2.401789756E0,1.800000109E-2,8.100000024E-2,9.742950439E0
2.403778064E0,4.200000316E-2,8.295000345E-2,9.751950264E0
2.405766679E0,3.195000067E-2,6.599999964E-2,9.733050346E0
2.407754996E0,3.705000132E-2,6.405000389E-2,9.751950264E0
2.409743380E0,3.405000269E-2,6.405000389E-2,9.727950096E0
2.411731919E0,4.200000316E-2,6.195000187E-2,9.750000000E0
2.413720534E0,5.805000290E-2,6.599999964E-2,9.739950180E0
2.415708919E0,4.605000094E-2,7.095000148E-2,9.745050430E0
2.417697227E0,5.100000277E-2,6.405000389E-2,9.750000000E0
2.419685770E0,4.200000316E-2,7.095000148E-2,9.762000084E0
2.421674155E0,6.105000153E-2,7.605000585E-2,9.754950523E0
2.423662693E0,5.805000290E-2,6.900000572E-2,9.747000694E0
2.425651078E0,4.395000264E-2,8.805000782E-2,9.757050514E0
2.428809232E0,4.905000329E-2,5.205000192E-2,9.745050430E0
2.429628001E0,5.595000088E-2,6.599999964E-2,9.750000000E0
2.431616319E0,6.105000153E-2,5.895000324E-2,9.739950180E0
2.433604857E0,5.100000277E-2,7.095000148E-2,9.754950523E0
2.435593242E0,5.595000088E-2,6.900000572E-2,9.763950348E0
2.437581857E0,5.100000277E-2,5.895000324E-2,9.751950264E0
2.439570165E0,5.595000088E-2,5.700000376E-2,9.763950348E0
2.441558472E0,3.705000132E-2,7.095000148E-2,9.750000000E0
2.443547073E0,2.700000070E-2,7.395000011E-2,9.762000084E0
2.445535611E0,1.500000060E-2,6.599999964E-2,9.775950432E0
2.447523996E0,1.500000060E-2,7.605000585E-2,9.759000778E0
2.449512534E0,2.700000070E-2,6.195000187E-2,9.759000778E0
2.451500919E0,7.950000465E-3,6.405000389E-2,9.759000778E0
2.453489448E0,3.000000026E-3,6.405000389E-2,9.762000084E0
2.455477756E0,1.305000018E-2,8.595000207E-2,9.739950180E0
2.457466371E0,3.000000026E-3,9.000000358E-2,9.762000084E0
2.459454679E0,7.950000465E-3,9.000000358E-2,9.745050430E0
2.461443064E0,0.000000000E0,8.295000345E-2,9.762000084E0
2.463431602E0,-1.200000010E-2,8.805000782E-2,9.751950264E0
2.465420256E0,-1.695000008E-2,9.795000404E-2,9.736050606E0
2.467408640E0,-1.995000057E-2,7.800000161E-2,9.745050430E0
2.469396948E0,0.000000000E0,8.805000782E-2,9.742950439E0
2.471385486E0,-1.695000008E-2,6.599999964E-2,9.739950180E0
2.473373871E0,-2.205000073E-2,9.495000541E-2,9.739950180E0
2.475362410E0,-2.400000021E-2,8.805000782E-2,9.750000000E0
2.477350780E0,-3.600000218E-2,9.000000358E-2,9.757050514E0
2.479339088E0,0.000000000E0,6.599999964E-2,9.745050430E0
2.481327703E0,-7.950000465E-3,8.805000782E-2,9.739950180E0
2.483316011E0,-1.500000060E-2,8.100000024E-2,9.751950264E0
2.485304549E0,-1.005000062E-2,8.100000024E-2,9.738000870E0
2.487292934E0,-1.005000062E-2,9.300000221E-2,9.750000000E0
2.489281563E0,-1.200000010E-2,9.000000358E-2,9.759000778E0
2.491269871E0,-1.005000062E-2,9.795000404E-2,9.754950523E0
2.493258410E0,-1.695000008E-2,6.599999964E-2,9.754950523E0
2.495246794E0,7.950000465E-3,1.050000042E-1,9.763950348E0
2.497235333E0,1.305000018E-2,8.295000345E-2,9.763950348E0
2.499223717E0,-1.200000010E-2,8.295000345E-2,9.747000694E0
2.501212285E0,6.000000052E-3,7.605000585E-2,9.751950264E0
2.503200669E0,1.500000060E-2,9.495000541E-2,9.747000694E0
2.505189208E0,1.050000079E-3,8.100000024E-2,9.766950607E0
2.507177516E0,3.000000026E-3,9.000000358E-2,9.747000694E0
2.509166131E0,1.305000018E-2,8.100000024E-2,9.771000862E0
2.511154516E0,1.005000062E-2,9.300000221E-2,9.747000694E0
2.513142818E0,3.000000026E-3,7.800000161E-2,9.747000694E0
2.515131357E0,1.500000060E-2,8.805000782E-2,9.739950180E0
2.517119972E0,1.500000060E-2,7.800000161E-2,9.738000870E0
2.519108280E0,3.000000119E-2,1.099500060E-1,9.733050346E0
2.521096664E0,1.005000062E-2,8.100000024E-2,9.754950523E0
2.523085213E0,1.800000109E-2,8.595000207E-2,9.739950180E0
2.525073598E0,1.500000060E-2,9.000000358E-2,9.733050346E0
2.527062136E0,1.800000109E-2,9.000000358E-2,9.747000694E0
2.529050521E0,7.950000465E-3,9.795000404E-2,9.745050430E0
2.531038828E0,3.000000119E-2,9.300000221E-2,9.757050514E0
2.533027444E0,2.205000073E-2,1.140000075E-1,9.739950180E0
2.535015751E0,1.305000018E-2,1.000500023E-1,9.745050430E0
2.537004290E0,1.800000109E-2,8.100000024E-2,9.754950523E0
2.538992674E0,3.000000119E-2,8.100000024E-2,9.750000000E0
2.540981290E0,1.305000018E-2,9.300000221E-2,9.747000694E0
2.542969598E0,3.705000132E-2,9.495000541E-2,9.739950180E0
2.544958136E0,3.900000080E-2,1.000500023E-1,9.721050262E0
2.546946540E0,4.905000329E-2,8.295000345E-2,9.730950356E0
2.548935078E0,3.000000119E-2,7.095000148E-2,9.738000870E0
2.550923463E0,2.700000070E-2,8.295000345E-2,9.745050430E0
2.552912001E0,3.405000269E-2,9.495000541E-2,9.736050606E0
2.554900386E0,3.900000080E-2,7.605000585E-2,9.757050514E0
2.556888924E0,3.900000080E-2,8.295000345E-2,9.757050514E0
2.558877232E0,4.605000094E-2,7.605000585E-2,9.757050514E0
2.560865617E0,4.200000316E-2,7.605000585E-2,9.771000862E0
2.562854232E0,4.605000094E-2,6.195000187E-2,9.759000778E0
2.564842770E0,4.605000094E-2,6.195000187E-2,9.771000862E0
2.566831078E0,5.100000277E-2,8.595000207E-2,9.771000862E0
2.568819463E0,5.100000277E-2,6.599999964E-2,9.762000084E0
2.570807986E0,2.505000122E-2,7.800000161E-2,9.745050430E0
2.572796371E0,4.200000316E-2,6.900000572E-2,9.742950439E0
2.574784909E0,3.195000067E-2,7.800000161E-2,9.724050522E0
2.576773294E0,1.995000057E-2,7.395000011E-2,9.726000786E0
2.578761832E0,4.395000264E-2,7.395000011E-2,9.727950096E0
2.580750217E0,3.195000067E-2,7.800000161E-2,9.726000786E0
2.582738554E0,2.505000122E-2,7.095000148E-2,9.715950012E0
2.584727169E0,2.505000122E-2,8.805000782E-2,9.709050179E0
2.586715708E0,7.950000465E-3,9.300000221E-2,9.712050438E0
2.588704015E0,1.005000062E-2,8.805000782E-2,9.726000786E0
2.590692400E0,2.205000073E-2,8.805000782E-2,9.714000702E0
2.592681015E0,-1.200000010E-2,9.300000221E-2,9.714000702E0
2.594669569E0,-3.000000026E-3,9.300000221E-2,9.742950439E0
2.596657876E0,0.000000000E0,9.795000404E-2,9.724050522E0
2.598646261E0,-3.000000026E-3,8.295000345E-2,9.721050262E0
2.600634800E0,-1.005000062E-2,6.900000572E-2,9.721050262E0
2.602623184E0,-1.695000008E-2,9.300000221E-2,9.727950096E0
2.604611723E0,-1.005000062E-2,1.000500023E-1,9.714000702E0
2.606600116E0,-1.995000057E-2,9.000000358E-2,9.733050346E0
2.608588655E0,-2.400000021E-2,9.300000221E-2,9.730950356E0
2.610576962E0,-3.000000026E-3,1.050000042E-1,9.714000702E0
2.612565347E0,6.000000052E-3,1.000500023E-1,9.715950012E0
2.614553885E0,-1.500000060E-2,9.300000221E-2,9.730950356E0
2.616542501E0,-1.500000060E-2,1.020000055E-1,9.726000786E0
2.618530790E0,0.000000000E0,7.605000585E-2,9.715950012E0
2.620519174E0,-1.200000010E-2,7.095000148E-2,9.733050346E0
2.622507713E0,-4.950000439E-3,8.805000782E-2,9.738000870E0
2.624496097E0,1.050000079E-3,8.100000024E-2,9.718950272E0
2.626490366E0,3.000000026E-3,9.795000404E-2,9.709050179E0
2.628484631E0,1.005000062E-2,8.295000345E-2,9.712050438E0
2.630461554E0,1.050000079E-3,7.800000161E-2,9.702000618E0
2.632449938E0,1.500000060E-2,8.805000782E-2,9.724050522E0
2.634438246E0,1.500000060E-2,8.100000024E-2,9.715950012E0
2.636426862E0,1.995000057E-2,8.100000024E-2,9.715950012E0
2.638415400E0,1.995000057E-2,7.605000585E-2,9.727950096E0
2.640403694E0,3.000000119E-2,7.605000585E-2,9.738000870E0
2.642392078E0,1.500000060E-2,9.300000221E-2,9.718950272E0
2.644380694E0,3.000000119E-2,8.100000024E-2,9.724050522E0
2.646369001E0,3.195000067E-2,7.395000011E-2,9.736050606E0
2.648357540E0,2.205000073E-2,7.605000585E-2,9.721050262E0
2.650345924E0,3.705000132E-2,8.595000207E-2,9.733050346E0
2.652334208E0,3.000000119E-2,6.900000572E-2,9.730950356E0
2.654322824E0,3.705000132E-2,6.900000572E-2,9.718950272E0
2.656311362E0,3.195000067E-2,7.605000585E-2,9.721050262E0
2.658299670E0,2.205000073E-2,8.595000207E-2,9.721050262E0
2.660288285E0,3.000000119E-2,4.695000127E-2,9.714000702E0
2.662276679E0,1.005000062E-2,5.700000376E-2,9.718950272E0
2.664264986E0,3.195000067E-2,5.400000140E-2,9.706950188E0
2.666253525E0,1.800000109E-2,7.395000011E-2,9.724050522E0
2.668242140E0,2.505000122E-2,6.599999964E-2,9.724050522E0
2.670230448E0,1.800000109E-2,8.295000345E-2,9.724050522E0
2.672218833E0,1.500000060E-2,6.195000187E-2,9.726000786E0
2.674207357E0,3.000000026E-3,5.400000140E-2,9.736050606E0
2.676195742E0,7.950000465E-3,6.599999964E-2,9.730950356E0
2.678184280E0,1.305000018E-2,7.395000011E-2,9.738000870E0
2.680172665E0,2.505000122E-2,5.895000324E-2,9.745050430E0
2.682161203E0,2.205000073E-2,6.900000572E-2,9.745050430E0
2.684149564E0,1.800000109E-2,4.995000362E-2,9.747000694E0
2.686137872E0,-4.950000439E-3,7.095000148E-2,9.745050430E0
2.688126410E0,7.950000465E-3,6.405000389E-2,9.742950439E0
2.690115025E0,1.005000062E-2,6.900000572E-2,9.736050606E0
2.692103333E0,2.700000070E-2,5.700000376E-2,9.745050430E0
2.694091718E0,2.205000073E-2,6.599999964E-2,9.721050262E0
2.696080347E0,2.205000073E-2,8.100000024E-2,9.738000870E0
2.698068886E0,7.950000465E-3,5.895000324E-2,9.727950096E0
2.700057193E0,1.800000109E-2,6.900000572E-2,9.721050262E0
2.702045578E0,1.500000060E-2,6.195000187E-2,9.721050262E0
2.704034116E0,2.205000073E-2,7.395000011E-2,9.715950012E0
2.706022501E0,4.395000264E-2,6.405000389E-2,9.703950882E0
2.708011049E0,1.995000057E-2,6.195000187E-2,9.709050179E0
2.709999357E0,3.705000132E-2,7.095000148E-2,9.712050438E0
2.711987973E0,3.000000119E-2,8.295000345E-2,9.703950882E0
2.713976357E0,2.505000122E-2,7.800000161E-2,9.706950188E0
2.715964665E0,1.005000062E-2,1.020000055E-1,9.733050346E0
2.717953203E0,6.000000052E-3,8.805000782E-2,9.727950096E0
2.719941804E0,1.305000018E-2,8.805000782E-2,9.724050522E0
2.721930111E0,1.500000060E-2,9.795000404E-2,9.739950180E0
2.723918496E0,7.950000465E-3,9.000000358E-2,9.733050346E0
2.725907035E0,6.000000052E-3,8.100000024E-2,9.718950272E0
2.727895419E0,7.950000465E-3,1.170000061E-1,9.726000786E0
2.729883958E0,6.000000052E-3,1.020000055E-1,9.727950096E0
2.731872314E0,-1.695000008E-2,9.795000404E-2,9.733050346E0
2.733860853E0,-1.005000062E-2,9.795000404E-2,9.718950272E0
2.735849237E0,3.000000026E-3,9.000000358E-2,9.727950096E0
2.737837776E0,-7.950000465E-3,9.000000358E-2,9.718950272E0
2.739826083E0,-1.995000057E-2,1.000500023E-1,9.712050438E0
2.741814468E0,1.050000079E-3,9.495000541E-2,9.715950012E0
2.743803097E0,-2.205000073E-2,1.069500074E-1,9.714000702E0
2.745791405E0,-7.950000465E-3,1.099500060E-1,9.733050346E0
2.747779944E0,-4.950000439E-3,8.805000782E-2,9.733050346E0
2.749768328E0,-1.695000008E-2,9.795000404E-2,9.727950096E0
2.751756867E0,7.950000465E-3,1.050000042E-1,9.726000786E0
2.753745227E0,-3.000000026E-3,8.295000345E-2,9.715950012E0
2.755733766E0,7.950000465E-3,1.069500074E-1,9.745050430E0
2.757722150E0,-1.005000062E-2,9.300000221E-2,9.736050606E0
2.759710689E0,-4.950000439E-3,1.069500074E-1,9.742950439E0
2.761699074E0,-3.000000026E-3,1.050000042E-1,9.747000694E0
2.763687381E0,-4.950000439E-3,8.805000782E-2,9.738000870E0
2.765675968E0,1.305000018E-2,9.300000221E-2,9.724050522E0
2.767664275E0,1.305000018E-2,8.100000024E-2,9.726000786E0
2.769652814E0,2.505000122E-2,1.050000042E-1,9.721050262E0
2.771641429E0,2.700000070E-2,9.000000358E-2,9.715950012E0
2.773629814E0,1.800000109E-2,8.805000782E-2,9.733050346E0
2.775618352E0,1.800000109E-2,9.795000404E-2,9.697050095E0
2.777606650E0,1.800000109E-2,8.295000345E-2,9.718950272E0
2.779595035E0,1.800000109E-2,7.800000161E-2,9.726000786E0
2.781583573E0,4.395000264E-2,6.900000572E-2,9.730950356E0
2.783571958E0,2.700000070E-2,6.900000572E-2,9.709050179E0
2.785560496E0,1.800000109E-2,5.400000140E-2,9.718950272E0
2.787548881E0,1.800000109E-2,7.395000011E-2,9.738000870E0
2.789537434E0,3.405000269E-2,7.395000011E-2,9.733050346E0
2.791525742E0,1.500000060E-2,6.900000572E-2,9.738000870E0
2.793514127E0,3.900000080E-2,7.095000148E-2,9.730950356E0
2.795502742E0,2.505000122E-2,7.095000148E-2,9.745050430E0
2.797491050E0,3.405000269E-2,5.895000324E-2,9.742950439E0
2.799479588E0,2.700000070E-2,6.599999964E-2,9.747000694E0
2.801467978E0,3.405000269E-2,6.900000572E-2,9.733050346E0
2.803456516E0,3.405000269E-2,7.095000148E-2,9.727950096E0
2.805444901E0,1.005000062E-2,6.405000389E-2,9.718950272E0
2.807433439E0,3.000000119E-2,6.195000187E-2,9.706950188E0
2.809421824E0,1.305000018E-2,5.700000376E-2,9.715950012E0
2.811410362E0,1.800000109E-2,7.095000148E-2,9.715950012E0
2.813398761E0,1.995000057E-2,6.599999964E-2,9.718950272E0
2.815387299E0,1.500000060E-2,7.095000148E-2,9.730950356E0
2.817375684E0,6.000000052E-3,5.700000376E-2,9.724050522E0
2.819363992E0,1.995000057E-2,5.205000192E-2,9.721050262E0
2.821352530E0,1.500000060E-2,6.195000187E-2,9.724050522E0
2.823341146E0,1.995000057E-2,7.395000011E-2,9.724050522E0
2.825329544E0,2.205000073E-2,6.405000389E-2,9.712050438E0
2.829317852E0,3.000000026E-3,6.405000389E-2,9.721050262E0
2.829472237E0,1.305000018E-2,6.900000572E-2,9.709050179E0
2.831294698E0,1.305000018E-2,8.100000024E-2,9.721050262E0
2.833283313E0,6.000000052E-3,8.805000782E-2,9.714000702E0
2.835271698E0,2.505000122E-2,8.805000782E-2,9.721050262E0
2.837260006E0,1.500000060E-2,8.295000345E-2,9.714000702E0
2.839248559E0,1.995000057E-2,8.100000024E-2,9.724050522E0
2.841237175E0,3.000000026E-3,8.295000345E-2,9.739950180E0
2.843225482E0,1.800000109E-2,7.395000011E-2,9.727950096E0
2.845213867E0,3.000000026E-3,6.195000187E-2,9.726000786E0
2.847202482E0,7.950000465E-3,6.195000187E-2,9.745050430E0
2.849190790E0,3.000000026E-3,7.800000161E-2,9.733050346E0
2.851179329E0,3.000000026E-3,8.100000024E-2,9.727950096E0
2.853167713E0,7.950000465E-3,7.605000585E-2,9.727950096E0
2.855156252E0,-4.950000439E-3,7.800000161E-2,9.751950264E0
2.857144636E0,-3.000000026E-3,8.595000207E-2,9.736050606E0
2.859133175E0,-3.000000026E-3,8.595000207E-2,9.726000786E0
2.861121559E0,1.005000062E-2,8.100000024E-2,9.726000786E0
2.863110098E0,0.000000000E0,8.100000024E-2,9.712050438E0
2.865098482E0,0.000000000E0,6.599999964E-2,9.714000702E0
2.867086790E0,6.000000052E-3,7.605000585E-2,9.712050438E0
2.869075405E0,1.005000062E-2,8.100000024E-2,9.727950096E0
2.871063944E0,-1.500000060E-2,7.605000585E-2,9.709050179E0
2.873052252E0,6.000000052E-3,8.295000345E-2,9.730950356E0
2.875040866E0,-4.950000439E-3,9.495000541E-2,9.747000694E0
2.877029174E0,-3.000000026E-3,9.300000221E-2,9.754950523E0
2.879017789E0,1.050000079E-3,1.050000042E-1,9.745050430E0
2.881006097E0,0.000000000E0,9.300000221E-2,9.727950096E0
2.882994481E0,-1.695000008E-2,7.395000011E-2,9.721050262E0
2.884983020E0,-2.700000070E-2,9.000000358E-2,9.721050262E0
2.886971381E0,-7.950000465E-3,9.300000221E-2,9.688050270E0
2.888959688E0,7.950000465E-3,7.800000161E-2,9.694950104E0
2.890948304E0,1.050000079E-3,9.795000404E-2,9.700050354E0
2.892936842E0,0.000000000E0,8.295000345E-2,9.697050095E0
2.894925150E0,6.000000052E-3,8.595000207E-2,9.700050354E0
2.896913534E0,7.950000465E-3,9.495000541E-2,9.709050179E0
2.898902126E0,6.000000052E-3,1.050000042E-1,9.715950012E0
2.900890664E0,1.305000018E-2,9.495000541E-2,9.738000870E0
2.902879049E0,1.305000018E-2,8.805000782E-2,9.726000786E0
2.904867357E0,3.000000119E-2,9.000000358E-2,9.727950096E0
2.906855972E0,1.995000057E-2,8.100000024E-2,9.715950012E0
2.908844280E0,3.000000119E-2,9.795000404E-2,9.736050606E0
2.910832828E0,3.195000067E-2,7.395000011E-2,9.745050430E0
2.912821213E0,3.195000067E-2,9.000000358E-2,9.738000870E0
2.914809751E0,1.500000060E-2,7.395000011E-2,9.750000000E0
2.916798136E0,5.100000277E-2,9.300000221E-2,9.747000694E0
2.918786444E0,3.000000119E-2,7.800000161E-2,9.745050430E0
2.920774982E0,3.195000067E-2,8.805000782E-2,9.736050606E0
2.922763616E0,3.405000269E-2,6.599999964E-2,9.750000000E0
2.924751924E0,3.405000269E-2,6.900000572E-2,9.742950439E0
2.926740309E0,4.905000329E-2,7.605000585E-2,9.736050606E0
2.928728847E0,4.200000316E-2,8.100000024E-2,9.730950356E0
2.930717463E0,3.705000132E-2,7.800000161E-2,9.736050606E0
2.932705770E0,3.195000067E-2,6.599999964E-2,9.730950356E0
2.934694140E0,4.605000094E-2,7.800000161E-2,9.712050438E0
2.936682678E0,3.900000080E-2,7.095000148E-2,9.715950012E0
2.938671063E0,3.705000132E-2,7.605000585E-2,9.736050606E0
2.940659601E0,3.000000119E-2,6.900000572E-2,9.738000870E0
2.942647986E0,3.000000119E-2,6.599999964E-2,9.726000786E0
2.944636525E0,5.100000277E-2,6.599999964E-2,9.724050522E0
2.946624842E0,3.195000067E-2,8.595000207E-2,9.724050522E0
2.948613227E0,3.405000269E-2,6.599999964E-2,9.721050262E0
2.950601842E0,3.405000269E-2,7.605000585E-2,9.715950012E0
2.952590381E0,1.800000109E-2,6.900000572E-2,9.702000618E0
2.954578765E0,1.050000079E-3,7.800000161E-2,9.702000618E0
2.956567073E0,1.005000062E-2,7.395000011E-2,9.718950272E0
2.958555688E0,1.800000109E-2,7.800000161E-2,9.697050095E0
2.960543996E0,7.950000465E-3,7.800000161E-2,9.697050095E0
2.962532535E0,3.000000026E-3,8.595000207E-2,9.724050522E0
2.964520919E0,1.005000062E-2,8.805000782E-2,9.703950882E0
2.966509227E0,1.800000109E-2,8.100000024E-2,9.702000618E0
2.968497842E0,1.050000079E-3,8.595000207E-2,9.706950188E0
2.970486376E0,6.000000052E-3,8.595000207E-2,9.691950798E0
2.972474683E0,1.050000079E-3,7.395000011E-2,9.714000702E0
2.974463299E0,1.050000079E-3,9.300000221E-2,9.709050179E0
2.976451607E0,-3.000000026E-3,9.495000541E-2,9.706950188E0
2.978439991E0,-3.000000026E-3,1.020000055E-1,9.715950012E0
2.980428530E0,-3.000000026E-3,1.140000075E-1,9.703950882E0
2.982417145E0,3.000000026E-3,9.495000541E-2,9.718950272E0
2.984405453E0,1.005000062E-2,1.050000042E-1,9.703950882E0
2.986393837E0,3.000000026E-3,1.099500060E-1,9.702000618E0
2.988382376E0,1.500000060E-2,9.000000358E-2,9.712050438E0
2.990370760E0,7.950000465E-3,9.300000221E-2,9.733050346E0
2.992359299E0,3.000000026E-3,1.140000075E-1,9.727950096E0
2.994347707E0,3.000000026E-3,1.020000055E-1,9.724050522E0
2.996336246E0,1.005000062E-2,1.069500074E-1,9.724050522E0
2.998324554E0,1.005000062E-2,1.069500074E-1,9.754950523E0
3.000312938E0,1.800000109E-2,1.020000055E-1,9.750000000E0
3.002301554E0,1.500000060E-2,1.170000061E-1,9.757050514E0
3.004290111E0,1.305000018E-2,1.260000020E-1,9.763950348E0
3.006278496E0,1.500000060E-2,1.050000042E-1,9.754950523E0
3.008266803E0,1.005000062E-2,1.170000061E-1,9.742950439E0
3.010255342E0,2.700000070E-2,1.069500074E-1,9.745050430E0
3.012243727E0,2.700000070E-2,1.099500060E-1,9.751950264E0
3.014232265E0,2.205000073E-2,1.050000042E-1,9.745050430E0
3.016220646E0,1.305000018E-2,1.170000061E-1,9.759000778E0
3.018208953E0,7.950000465E-3,1.050000042E-1,9.747000694E0
3.020197569E0,1.995000057E-2,8.595000207E-2,9.733050346E0
3.022186107E0,1.305000018E-2,1.000500023E-1,9.751950264E0
3.024174415E0,0.000000000E0,9.795000404E-2,9.751950264E0
3.026168746E0,1.995000057E-2,8.595000207E-2,9.747000694E0
3.028163049E0,1.995000057E-2,8.295000345E-2,9.736050606E0
3.030139972E0,7.950000465E-3,8.100000024E-2,9.736050606E0
3.032128280E0,-4.950000439E-3,8.295000345E-2,9.745050430E0
3.034116895E0,0.000000000E0,6.599999964E-2,9.724050522E0
3.036105203E0,-7.950000465E-3,6.900000572E-2,9.712050438E0
3.038093588E0,-2.700000070E-2,6.900000572E-2,9.714000702E0
3.040082126E0,-4.950000439E-3,4.995000362E-2,9.721050262E0
3.042070511E0,1.995000057E-2,4.305000231E-2,9.709050179E0
3.044059049E0,-4.950000439E-3,5.400000140E-2,9.690000534E0
3.046047434E0,1.050000079E-3,4.305000231E-2,9.688050270E0
3.048035972E0,1.050000079E-3,6.599999964E-2,9.697050095E0
3.050024357E0,-2.895000204E-2,3.795000166E-2,9.706950188E0
3.052012654E0,3.000000026E-3,4.500000179E-2,9.702000618E0
3.054001192E0,-3.000000026E-3,3.105000220E-2,9.715950012E0
3.055989577E0,-1.200000010E-2,5.400000140E-2,9.724050522E0
3.057978192E0,-4.950000439E-3,4.005000368E-2,9.702000618E0
3.059966500E0,1.500000060E-2,4.305000231E-2,9.727950096E0
3.061955029E0,7.950000465E-3,3.795000166E-2,9.715950012E0
3.063943645E0,6.000000052E-3,4.695000127E-2,9.738000870E0
3.065931952E0,1.050000079E-3,4.995000362E-2,9.739950180E0
3.067920337E0,1.305000018E-2,4.500000179E-2,9.742950439E0
3.069908875E0,1.800000109E-2,6.599999964E-2,9.727950096E0
3.071897260E0,3.195000067E-2,6.405000389E-2,9.727950096E0
3.073885813E0,7.950000465E-3,5.205000192E-2,9.738000870E0
3.075874197E0,7.950000465E-3,6.900000572E-2,9.730950356E0
3.077862736E0,3.195000067E-2,7.605000585E-2,9.727950096E0
3.079851120E0,2.205000073E-2,6.900000572E-2,9.727950096E0
3.081839659E0,3.000000119E-2,6.900000572E-2,9.715950012E0
3.083827985E0,2.205000073E-2,8.595000207E-2,9.718950272E0
3.085816601E0,2.700000070E-2,6.405000389E-2,9.727950096E0
3.087804909E0,2.205000073E-2,8.100000024E-2,9.745050430E0
3.089793293E0,0.000000000E0,8.595000207E-2,9.733050346E0
3.091781832E0,2.205000073E-2,8.805000782E-2,9.718950272E0
3.093770216E0,2.205000073E-2,9.795000404E-2,9.709050179E0
3.095758741E0,2.505000122E-2,1.069500074E-1,9.718950272E0
3.097747125E0,7.950000465E-3,1.189500093E-1,9.714000702E0
3.099735433E0,2.505000122E-2,1.020000055E-1,9.718950272E0
3.101724048E0,6.000000052E-3,1.140000075E-1,9.721050262E0
3.103712587E0,1.500000060E-2,1.219500080E-1,9.714000702E0
3.105700895E0,3.705000132E-2,1.140000075E-1,9.709050179E0
3.107689260E0,1.305000018E-2,1.219500080E-1,9.712050438E0
3.109677876E0,1.305000018E-2,1.140000075E-1,9.709050179E0
3.111666183E0,2.700000070E-2,1.219500080E-1,9.709050179E0
3.113654722E0,1.995000057E-2,1.189500093E-1,9.712050438E0
3.115643337E0,1.800000109E-2,1.189500093E-1,9.715950012E0
3.117631645E0,4.200000316E-2,1.140000075E-1,9.736050606E0
3.119620019E0,3.900000080E-2,1.170000061E-1,9.721050262E0
3.121608558E0,3.405000269E-2,1.309500039E-1,9.712050438E0
3.123596943E0,1.305000018E-2,1.189500093E-1,9.715950012E0
3.125585481E0,1.800000109E-2,1.140000075E-1,9.738000870E0
3.127573866E0,3.705000132E-2,9.795000404E-2,9.724050522E0
3.129562404E0,2.505000122E-2,9.300000221E-2,9.727950096E0
3.131550804E0,3.405000269E-2,8.805000782E-2,9.727950096E0
3.133539342E0,1.995000057E-2,9.000000358E-2,9.721050262E0
3.135527650E0,1.005000062E-2,8.100000024E-2,9.730950356E0
3.137516265E0,3.405000269E-2,5.895000324E-2,9.727950096E0
3.139504650E0,3.000000119E-2,7.800000161E-2,9.738000870E0
3.141492958E0,3.195000067E-2,6.405000389E-2,9.730950356E0
3.143481510E0,0.000000000E0,5.400000140E-2,9.721050262E0
3.145469818E0,1.800000109E-2,3.495000303E-2,9.730950356E0
3.147458433E0,1.305000018E-2,4.695000127E-2,9.736050606E0
3.149446818E0,3.900000080E-2,5.700000376E-2,9.721050262E0
3.151435356E0,1.995000057E-2,4.695000127E-2,9.726000786E0
3.153423741E0,1.305000018E-2,4.005000368E-2,9.715950012E0
3.155412279E0,6.000000052E-3,4.005000368E-2,9.730950356E0
3.157400587E0,1.995000057E-2,4.995000362E-2,9.738000870E0
3.159388972E0,-1.695000008E-2,4.305000231E-2,9.714000702E0
3.161377587E0,1.050000079E-3,5.700000376E-2,9.733050346E0
3.163365895E0,-1.500000060E-2,4.500000179E-2,9.721050262E0
3.165354423E0,-4.950000439E-3,6.195000187E-2,9.715950012E0
3.167342808E0,6.000000052E-3,4.500000179E-2,9.721050262E0
3.169331423E0,0.000000000E0,4.500000179E-2,9.726000786E0
3.171319731E0,-4.950000439E-3,5.895000324E-2,9.742950439E0
3.173308269E0,-1.995000057E-2,4.995000362E-2,9.726000786E0
3.175296654E0,-3.000000026E-3,5.700000376E-2,9.721050262E0
3.177285183E0,-1.005000062E-2,6.195000187E-2,9.712050438E0
3.179273568E0,-1.005000062E-2,6.599999964E-2,9.726000786E0
3.181262107E0,0.000000000E0,6.405000389E-2,9.724050522E0
3.183250491E0,-1.200000010E-2,7.395000011E-2,9.714000702E0
3.185239030E0,-1.695000008E-2,8.100000024E-2,9.703950882E0
3.187227337E0,3.000000026E-3,9.000000358E-2,9.714000702E0
3.189215722E0,1.305000018E-2,9.495000541E-2,9.709050179E0
3.191204337E0,-3.000000026E-3,8.295000345E-2,9.718950272E0
3.193192876E0,1.050000079E-3,8.805000782E-2,9.700050354E0
3.195181183E0,1.800000109E-2,8.805000782E-2,9.715950012E0
3.197169491E0,2.205000073E-2,9.300000221E-2,9.727950096E0
3.199158107E0,1.305000018E-2,9.795000404E-2,9.745050430E0
3.201146495E0,3.195000067E-2,1.170000061E-1,9.724050522E0
3.203135034E0,4.905000329E-2,9.000000358E-2,9.726000786E0
3.205123418E0,1.995000057E-2,1.069500074E-1,9.730950356E0
3.207111957E0,4.200000316E-2,1.219500080E-1,9.742950439E0
3.209100341E0,3.000000119E-2,1.290000081E-1,9.745050430E0
3.211088880E0,3.900000080E-2,1.170000061E-1,9.739950180E0
3.213077236E0,5.595000088E-2,1.189500093E-1,9.747000694E0
3.215065544E0,5.400000140E-2,1.290000081E-1,9.739950180E0
3.217054083E0,5.400000140E-2,1.309500039E-1,9.739950180E0
3.219042467E0,4.200000316E-2,1.380000114E-1,9.733050346E0
3.221031083E0,4.200000316E-2,1.290000081E-1,9.739950180E0
3.223019640E0,5.100000277E-2,1.140000075E-1,9.751950264E0
3.225007948E0,4.605000094E-2,1.140000075E-1,9.745050430E0
3.227002145E0,5.100000277E-2,1.189500093E-1,9.738000870E0
3.228996332E0,3.900000080E-2,1.069500074E-1,9.751950264E0
3.230973255E0,3.900000080E-2,1.260000020E-1,9.751950264E0
3.232961794E0,2.700000070E-2,1.050000042E-1,9.733050346E0
3.234950122E0,3.000000119E-2,1.099500060E-1,9.745050430E0
3.236938737E0,3.405000269E-2,1.069500074E-1,9.724050522E0
3.238927045E0,2.700000070E-2,1.020000055E-1,9.718950272E0
3.240915429E0,6.000000052E-3,9.000000358E-2,9.721050262E0
3.242903968E0,7.950000465E-3,9.495000541E-2,9.706950188E0
3.244892583E0,1.500000060E-2,9.300000221E-2,9.702000618E0
3.246880910E0,1.800000109E-2,8.805000782E-2,9.703950882E0
3.248869295E0,1.050000079E-3,6.405000389E-2,9.712050438E0
3.250857910E0,-3.000000026E-3,7.395000011E-2,9.702000618E0
3.252846218E0,-3.000000026E-3,8.295000345E-2,9.706950188E0
3.254834756E0,7.950000465E-3,7.605000585E-2,9.702000618E0
3.256823141E0,1.050000079E-3,6.195000187E-2,9.709050179E0
3.258811674E0,-1.005000062E-2,5.205000192E-2,9.718950272E0
3.260800059E0,-4.950000439E-3,4.695000127E-2,9.715950012E0
3.262788597E0,-1.500000060E-2,5.205000192E-2,9.714000702E0
3.264776982E0,-2.895000204E-2,5.205000192E-2,9.727950096E0
3.266765290E0,0.000000000E0,4.305000231E-2,9.739950180E0
3.268753905E0,-1.005000062E-2,4.995000362E-2,9.745050430E0
3.270742203E0,-1.500000060E-2,4.995000362E-2,9.724050522E0
3.272730741E0,-1.500000060E-2,4.500000179E-2,9.738000870E0
3.274719357E0,-3.000000026E-3,3.795000166E-2,9.733050346E0
3.276707664E0,-1.005000062E-2,3.495000303E-2,9.733050346E0
3.278696049E0,0.000000000E0,4.305000231E-2,9.739950180E0
3.280684587E0,-3.000000026E-3,4.005000368E-2,9.747000694E0
3.282672992E0,6.000000052E-3,3.795000166E-2,9.727950096E0
3.284661530E0,-3.000000026E-3,5.205000192E-2,9.730950356E0
3.286649838E0,1.305000018E-2,3.795000166E-2,9.738000870E0
3.288638453E0,6.000000052E-3,4.500000179E-2,9.721050262E0
3.290626838E0,7.950000465E-3,4.995000362E-2,9.733050346E0
3.292615146E0,1.050000079E-3,5.400000140E-2,9.730950356E0
3.294603708E0,-1.005000062E-2,4.500000179E-2,9.726000786E0
3.296592324E0,-4.950000439E-3,5.700000376E-2,9.739950180E0
3.298580708E0,6.000000052E-3,6.195000187E-2,9.718950272E0
3.300569016E0,-4.950000439E-3,6.195000187E-2,9.706950188E0
3.302557631E0,3.000000026E-3,7.800000161E-2,9.715950012E0
3.304545939E0,3.000000026E-3,7.800000161E-2,9.712050438E0
3.306534473E0,6.000000052E-3,7.800000161E-2,9.709050179E0
3.308522857E0,7.950000465E-3,9.300000221E-2,9.714000702E0
3.310511396E0,1.995000057E-2,1.099500060E-1,9.706950188E0
3.312499780E0,7.950000465E-3,9.300000221E-2,9.718950272E0
3.314488319E0,6.000000052E-3,1.000500023E-1,9.736050606E0
3.316476703E0,1.005000062E-2,1.050000042E-1,9.747000694E0
3.318465011E0,2.700000070E-2,1.170000061E-1,9.742950439E0
3.320453626E0,2.205000073E-2,1.240500063E-1,9.736050606E0
3.322441934E0,3.900000080E-2,1.240500063E-1,9.726000786E0
3.324430473E0,3.900000080E-2,1.309500039E-1,9.724050522E0
3.326419088E0,2.700000070E-2,1.189500093E-1,9.745050430E0
3.328407396E0,2.205000073E-2,1.260000020E-1,9.738000870E0
3.330395765E0,2.205000073E-2,1.189500093E-1,9.739950180E0
3.332384304E0,3.405000269E-2,1.219500080E-1,9.724050522E0
3.334372688E0,3.705000132E-2,1.360500008E-1,9.715950012E0
3.336361227E0,3.195000067E-2,1.330500096E-1,9.733050346E0
3.338349611E0,4.395000264E-2,1.170000061E-1,9.721050262E0
3.340338150E0,1.800000109E-2,1.260000020E-1,9.715950012E0
3.342326521E0,3.900000080E-2,1.099500060E-1,9.733050346E0
3.344315059E0,4.905000329E-2,1.120500043E-1,9.739950180E0
3.346303444E0,3.705000132E-2,1.069500074E-1,9.724050522E0
3.348291982E0,6.105000153E-2,9.495000541E-2,9.733050346E0
3.350280367E0,5.100000277E-2,1.000500023E-1,9.739950180E0
3.352268674E0,4.605000094E-2,9.300000221E-2,9.742950439E0
3.354257299E0,4.905000329E-2,7.605000585E-2,9.724050522E0
3.356245837E0,4.200000316E-2,9.495000541E-2,9.730950356E0
3.358234222E0,4.605000094E-2,7.095000148E-2,9.730950356E0
3.360222530E0,3.195000067E-2,7.605000585E-2,9.703950882E0
3.362210837E0,3.900000080E-2,6.900000572E-2,9.690000534E0
3.364199444E0,4.200000316E-2,6.405000389E-2,9.694950104E0
3.366187982E0,3.705000132E-2,7.095000148E-2,9.690000534E0
3.368176367E0,4.200000316E-2,5.700000376E-2,9.709050179E0
3.370164905E0,3.705000132E-2,6.195000187E-2,9.726000786E0
3.372153290E0,3.000000119E-2,6.405000389E-2,9.726000786E0
3.374141828E0,3.000000119E-2,6.900000572E-2,9.742950439E0
3.376130112E0,7.950000465E-3,6.599999964E-2,9.751950264E0
3.378118727E0,1.500000060E-2,6.405000389E-2,9.751950264E0
3.380107035E0,-3.000000026E-3,6.195000187E-2,9.763950348E0
3.382095420E0,1.500000060E-2,5.700000376E-2,9.747000694E0
3.384083958E0,-7.950000465E-3,6.599999964E-2,9.745050430E0
3.386072574E0,-3.000000026E-3,6.195000187E-2,9.739950180E0
3.388060890E0,-1.005000062E-2,6.405000389E-2,9.727950096E0
3.390049275E0,0.000000000E0,5.895000324E-2,9.726000786E0
3.392037813E0,-1.005000062E-2,5.400000140E-2,9.712050438E0
3.394026198E0,-1.200000010E-2,6.599999964E-2,9.721050262E0
3.396014736E0,-2.400000021E-2,4.995000362E-2,9.714000702E0
3.398003121E0,-3.405000269E-2,5.700000376E-2,9.712050438E0
3.399991689E0,-2.400000021E-2,5.895000324E-2,9.709050179E0
3.401980073E0,-2.700000070E-2,6.900000572E-2,9.736050606E0
3.403968381E0,-1.695000008E-2,4.695000127E-2,9.745050430E0
3.405956996E0,0.000000000E0,6.900000572E-2,9.754950523E0
3.407945304E0,-1.695000008E-2,5.700000376E-2,9.747000694E0
3.409933919E0,1.050000079E-3,6.405000389E-2,9.750000000E0
3.411922217E0,6.000000052E-3,6.900000572E-2,9.745050430E0
3.413910755E0,0.000000000E0,6.900000572E-2,9.762000084E0
3.415899140E0,-1.200000010E-2,8.100000024E-2,9.738000870E0
3.417887679E0,1.800000109E-2,9.795000404E-2,9.742950439E0
3.419876063E0,2.700000070E-2,8.595000207E-2,9.757050514E0
3.421864593E0,1.305000018E-2,7.605000585E-2,9.733050346E0
3.423852977E0,1.800000109E-2,9.795000404E-2,9.738000870E0
3.425847251E0,3.000000119E-2,1.050000042E-1,9.730950356E0
3.427841516E0,2.700000070E-2,1.069500074E-1,9.706950188E0
3.429337516E0,3.000000119E-2,1.140000075E-1,9.727950096E0
3.431806747E0,3.405000269E-2,1.069500074E-1,9.730950356E0
3.433795136E0,3.405000269E-2,1.020000055E-1,9.736050606E0
3.435783675E0,2.505000122E-2,8.295000345E-2,9.750000000E0
3.437772290E0,4.605000094E-2,9.795000404E-2,9.736050606E0
3.439760675E0,3.195000067E-2,1.069500074E-1,9.754950523E0
3.441748982E0,3.900000080E-2,1.140000075E-1,9.747000694E0
3.443737521E0,3.000000119E-2,1.120500043E-1,9.714000702E0
3.445725905E0,2.505000122E-2,1.120500043E-1,9.726000786E0
3.447714444E0,3.705000132E-2,1.000500023E-1,9.718950272E0
3.449702828E0,1.305000018E-2,1.000500023E-1,9.691950798E0
3.451691136E0,2.505000122E-2,1.189500093E-1,9.678000450E0
3.453679752E0,1.800000109E-2,9.300000221E-2,9.694950104E0
3.455668290E0,3.195000067E-2,1.140000075E-1,9.706950188E0
3.457656593E0,1.800000109E-2,1.069500074E-1,9.691950798E0
3.459644977E0,1.995000057E-2,1.050000042E-1,9.691950798E0
3.461633593E0,1.005000062E-2,9.495000541E-2,9.714000702E0
3.463621900E0,-1.995000057E-2,1.069500074E-1,9.745050430E0
3.465610439E0,-3.000000026E-3,9.795000404E-2,9.745050430E0
3.467599054E0,7.950000465E-3,1.140000075E-1,9.754950523E0
3.469587367E0,0.000000000E0,8.295000345E-2,9.739950180E0
3.471575752E0,1.005000062E-2,9.000000358E-2,9.774000168E0
3.473564290E0,-4.950000439E-3,6.900000572E-2,9.762000084E0
3.475552675E0,0.000000000E0,8.100000024E-2,9.742950439E0
3.477541213E0,7.950000465E-3,7.395000011E-2,9.745050430E0
3.479529598E0,-3.000000026E-3,7.800000161E-2,9.742950439E0
3.481518116E0,1.005000062E-2,5.700000376E-2,9.712050438E0
3.483506501E0,3.000000026E-3,8.100000024E-2,9.715950012E0
3.485494809E0,1.050000079E-3,7.395000011E-2,9.721050262E0
3.487483347E0,2.700000070E-2,8.295000345E-2,9.709050179E0
3.489471962E0,1.305000018E-2,6.405000389E-2,9.733050346E0
3.491460347E0,1.005000062E-2,5.400000140E-2,9.733050346E0
3.493448670E0,6.000000052E-3,6.599999964E-2,9.730950356E0
3.495437208E0,1.500000060E-2,5.895000324E-2,9.727950096E0
3.497425593E0,1.305000018E-2,5.895000324E-2,9.736050606E0
3.499414131E0,1.005000062E-2,5.205000192E-2,9.733050346E0
3.501402516E0,1.305000018E-2,5.400000140E-2,9.736050606E0
3.503390824E0,7.950000465E-3,6.195000187E-2,9.733050346E0
3.505379424E0,2.505000122E-2,7.800000161E-2,9.727950096E0
3.507367962E0,1.005000062E-2,6.599999964E-2,9.739950180E0
3.509356347E0,1.500000060E-2,6.599999964E-2,9.715950012E0
3.511344886E0,1.995000057E-2,9.495000541E-2,9.727950096E0
3.513333270E0,6.000000052E-3,7.800000161E-2,9.718950272E0
3.515321578E0,1.995000057E-2,8.100000024E-2,9.721050262E0
3.517310097E0,3.705000132E-2,9.795000404E-2,9.724050522E0
3.519298713E0,3.000000119E-2,9.300000221E-2,9.721050262E0
3.521287097E0,7.950000465E-3,9.000000358E-2,9.738000870E0
3.523275405E0,3.000000119E-2,9.000000358E-2,9.742950439E0
3.525263944E0,1.995000057E-2,8.595000207E-2,9.750000000E0
3.527252328E0,3.195000067E-2,9.795000404E-2,9.763950348E0
3.529240867E0,1.305000018E-2,1.000500023E-1,9.747000694E0
3.531229251E0,1.305000018E-2,9.495000541E-2,9.745050430E0
3.533217790E0,7.950000465E-3,9.300000221E-2,9.762000084E0
3.535206174E0,1.050000079E-3,9.795000404E-2,9.733050346E0
3.537194713E0,1.800000109E-2,9.495000541E-2,9.733050346E0
3.539183097E0,1.500000060E-2,7.800000161E-2,9.714000702E0
3.541171395E0,6.000000052E-3,8.100000024E-2,9.721050262E0
3.543160010E0,2.505000122E-2,1.020000055E-1,9.736050606E0
3.545148318E0,1.800000109E-2,8.100000024E-2,9.733050346E0
3.547136857E0,1.500000060E-2,7.605000585E-2,9.742950439E0
3.549125241E0,1.005000062E-2,9.000000358E-2,9.726000786E0
3.551113857E0,2.700000070E-2,7.395000011E-2,9.703950882E0
3.553102150E0,3.000000119E-2,8.295000345E-2,9.724050522E0
3.555090458E0,2.205000073E-2,7.800000161E-2,9.726000786E0
3.557079073E0,2.505000122E-2,6.900000572E-2,9.706950188E0
3.559067612E0,3.000000119E-2,7.395000011E-2,9.718950272E0
3.561055997E0,2.205000073E-2,6.599999964E-2,9.712050438E0
3.563044525E0,3.195000067E-2,5.895000324E-2,9.709050179E0
3.565032910E0,2.205000073E-2,7.605000585E-2,9.718950272E0
3.567021448E0,3.405000269E-2,6.900000572E-2,9.706950188E0
3.569009756E0,1.005000062E-2,6.900000572E-2,9.703950882E0
3.570998140E0,1.995000057E-2,6.195000187E-2,9.718950272E0
3.572986756E0,1.995000057E-2,6.599999964E-2,9.739950180E0
3.574975068E0,2.505000122E-2,5.205000192E-2,9.736050606E0
3.576963607E0,3.000000119E-2,5.205000192E-2,9.754950523E0
3.578952222E0,3.705000132E-2,4.695000127E-2,9.736050606E0
3.580940607E0,2.505000122E-2,5.895000324E-2,9.771000862E0
3.582928915E0,3.195000067E-2,5.400000140E-2,9.747000694E0
3.584917453E0,1.800000109E-2,7.395000011E-2,9.750000000E0
3.586905819E0,3.405000269E-2,6.599999964E-2,9.757050514E0
3.588894357E0,1.800000109E-2,7.395000011E-2,9.738000870E0
3.590882742E0,3.000000026E-3,5.700000376E-2,9.747000694E0
3.592871050E0,1.305000018E-2,7.800000161E-2,9.730950356E0
3.594859665E0,1.995000057E-2,6.195000187E-2,9.718950272E0
3.596848203E0,7.950000465E-3,7.800000161E-2,9.727950096E0
3.598836487E0,3.000000026E-3,5.895000324E-2,9.724050522E0
3.600824872E0,-4.950000439E-3,8.295000345E-2,9.721050262E0
3.602813487E0,7.950000465E-3,6.195000187E-2,9.709050179E0
3.604801795E0,-3.000000026E-3,6.599999964E-2,9.709050179E0
3.606790333E0,1.050000079E-3,9.300000221E-2,9.712050438E0
3.608778718E0,-2.205000073E-2,8.805000782E-2,9.682950020E0
3.610767342E0,-4.950000439E-3,6.599999964E-2,9.706950188E0
3.612755650E0,1.050000079E-3,7.800000161E-2,9.703950882E0
3.614744188E0,-1.005000062E-2,8.805000782E-2,9.718950272E0
3.616732573E0,1.005000062E-2,1.020000055E-1,9.706950188E0
3.618721111E0,-3.000000026E-3,8.100000024E-2,9.714000702E0
3.620709496E0,1.050000079E-3,9.795000404E-2,9.736050606E0
3.622697997E0,-7.950000465E-3,1.000500023E-1,9.726000786E0
3.624686381E0,6.000000052E-3,9.795000404E-2,9.747000694E0
3.626680655E0,1.500000060E-2,1.069500074E-1,9.750000000E0
3.628674920E0,1.995000057E-2,1.020000055E-1,9.739950180E0
3.630651612E0,1.995000057E-2,1.000500023E-1,9.733050346E0
3.632640227E0,3.195000067E-2,8.805000782E-2,9.750000000E0
3.634628771E0,1.995000057E-2,1.050000042E-1,9.726000786E0
3.636617079E0,2.700000070E-2,9.300000221E-2,9.730950356E0
3.638605463E0,3.900000080E-2,9.300000221E-2,9.733050346E0
3.640594002E0,3.000000119E-2,1.020000055E-1,9.745050430E0
3.642582386E0,3.900000080E-2,1.050000042E-1,9.739950180E0
3.644570694E0,3.405000269E-2,9.795000404E-2,9.736050606E0
3.646559313E0,2.505000122E-2,6.900000572E-2,9.738000870E0
3.648547852E0,1.305000018E-2,9.300000221E-2,9.733050346E0
3.650536236E0,3.405000269E-2,7.395000011E-2,9.736050606E0
3.652524775E0,3.000000119E-2,8.100000024E-2,9.730950356E0
3.654513160E0,1.500000060E-2,6.599999964E-2,9.712050438E0
3.656501698E0,1.500000060E-2,8.295000345E-2,9.727950096E0
3.658490016E0,1.995000057E-2,6.599999964E-2,9.706950188E0
3.660478400E0,2.505000122E-2,7.095000148E-2,9.721050262E0
3.662467016E0,1.800000109E-2,7.800000161E-2,9.700050354E0
3.664455323E0,7.950000465E-3,7.395000011E-2,9.733050346E0
3.666443862E0,1.050000079E-3,6.900000572E-2,9.726000786E0
3.668432246E0,3.000000026E-3,6.599999964E-2,9.721050262E0
3.670420775E0,6.000000052E-3,8.100000024E-2,9.738000870E0
3.672409160E0,-4.950000439E-3,5.895000324E-2,9.750000000E0
3.674397698E0,0.000000000E0,6.195000187E-2,9.733050346E0
3.676386083E0,0.000000000E0,8.100000024E-2,9.736050606E0
3.678374621E0,-4.950000439E-3,7.395000011E-2,9.726000786E0
3.680363006E0,-1.200000010E-2,6.900000572E-2,9.739950180E0
3.682351313E0,-2.205000073E-2,8.295000345E-2,9.738000870E0
3.684339852E0,-1.500000060E-2,9.000000358E-2,9.742950439E0
3.686328467E0,-1.005000062E-2,8.595000207E-2,9.747000694E0
3.688316775E0,1.050000079E-3,7.605000585E-2,9.739950180E0
3.690305160E0,-4.950000439E-3,9.000000358E-2,9.733050346E0
3.692293775E0,7.950000465E-3,8.295000345E-2,9.747000694E0
3.694282083E0,1.050000079E-3,8.595000207E-2,9.727950096E0
3.696270621E0,-1.995000057E-2,7.605000585E-2,9.726000786E0
3.698259006E0,-1.200000010E-2,7.800000161E-2,9.724050522E0
3.700247544E0,1.050000079E-3,7.095000148E-2,9.727950096E0
3.702235929E0,-7.950000465E-3,8.295000345E-2,9.736050606E0
3.704224491E0,0.000000000E0,8.295000345E-2,9.733050346E0
3.706212876E0,6.000000052E-3,6.195000187E-2,9.706950188E0
3.708201414E0,7.950000465E-3,5.895000324E-2,9.733050346E0
3.710189799E0,1.005000062E-2,7.800000161E-2,9.742950439E0
3.712178107E0,0.000000000E0,5.205000192E-2,9.730950356E0
3.714166722E0,-7.950000465E-3,7.800000161E-2,9.694950104E0
3.716155285E0,1.800000109E-2,6.195000187E-2,9.702000618E0
3.718143592E0,1.005000062E-2,8.100000024E-2,9.700050354E0
3.720131977E0,1.305000018E-2,8.100000024E-2,9.724050522E0
3.722120515E0,1.305000018E-2,8.100000024E-2,9.739950180E0
3.724109131E0,2.505000122E-2,1.069500074E-1,9.714000702E0
3.726097438E0,1.500000060E-2,9.795000404E-2,9.718950272E0
3.728085823E0,1.305000018E-2,1.050000042E-1,9.747000694E0
3.730074362E0,1.005000062E-2,9.495000541E-2,9.738000870E0
3.732062746E0,2.505000122E-2,9.000000358E-2,9.754950523E0
3.734051285E0,2.205000073E-2,9.300000221E-2,9.738000870E0
3.736039669E0,2.505000122E-2,1.050000042E-1,9.738000870E0
3.738028208E0,7.950000465E-3,1.000500023E-1,9.745050430E0
3.740016515E0,3.000000119E-2,9.495000541E-2,9.721050262E0
3.742004900E0,2.700000070E-2,9.495000541E-2,9.736050606E0
3.743993515E0,2.205000073E-2,9.795000404E-2,9.736050606E0
3.745982054E0,3.405000269E-2,9.495000541E-2,9.736050606E0
3.747970438E0,1.500000060E-2,1.050000042E-1,9.730950356E0
3.749958746E0,1.500000060E-2,9.000000358E-2,9.739950180E0
3.751947362E0,6.000000052E-3,8.595000207E-2,9.714000702E0
3.753935669E0,2.700000070E-2,8.100000024E-2,9.715950012E0
3.755924208E0,1.305000018E-2,8.100000024E-2,9.721050262E0
3.757912592E0,1.500000060E-2,8.805000782E-2,9.730950356E0
3.759901131E0,1.305000018E-2,8.295000345E-2,9.727950096E0
3.761889486E0,6.000000052E-3,7.605000585E-2,9.730950356E0
3.763878025E0,2.205000073E-2,8.805000782E-2,9.721050262E0
3.765866410E0,2.205000073E-2,8.295000345E-2,9.712050438E0
3.767854948E0,3.000000119E-2,7.095000148E-2,9.697050095E0
3.769843256E0,1.800000109E-2,8.100000024E-2,9.702000618E0
3.771831640E0,3.405000269E-2,7.395000011E-2,9.721050262E0
3.773820184E0,2.505000122E-2,6.405000389E-2,9.697050095E0
3.775808799E0,1.305000018E-2,7.800000161E-2,9.715950012E0
3.777797107E0,2.205000073E-2,7.095000148E-2,9.703950882E0
3.779785491E0,3.405000269E-2,6.405000389E-2,9.757050514E0
3.781774107E0,3.900000080E-2,5.895000324E-2,9.742950439E0
3.783762415E0,1.305000018E-2,7.605000585E-2,9.751950264E0
3.785750982E0,4.200000316E-2,7.800000161E-2,9.742950439E0
3.787739367E0,3.405000269E-2,7.395000011E-2,9.754950523E0
3.789727905E0,5.595000088E-2,6.405000389E-2,9.751950264E0
3.791716290E0,4.200000316E-2,7.395000011E-2,9.759000778E0
3.793704828E0,3.900000080E-2,6.599999964E-2,9.738000870E0
3.795693213E0,2.205000073E-2,6.599999964E-2,9.747000694E0
3.797681741E0,3.195000067E-2,1.000500023E-1,9.762000084E0
3.799670126E0,3.195000067E-2,7.395000011E-2,9.742950439E0
3.801658434E0,3.000000119E-2,7.800000161E-2,9.726000786E0
3.803647049E0,1.800000109E-2,6.195000187E-2,9.733050346E0
3.805635587E0,1.500000060E-2,6.900000572E-2,9.691950798E0
3.807623895E0,2.700000070E-2,7.605000585E-2,9.715950012E0
3.809612304E0,1.995000057E-2,7.395000011E-2,9.724050522E0
3.811600842E0,1.305000018E-2,7.605000585E-2,9.712050438E0
3.813589227E0,1.050000079E-3,8.595000207E-2,9.712050438E0
3.815577765E0,-1.005000062E-2,7.800000161E-2,9.718950272E0
3.817566150E0,-7.950000465E-3,8.805000782E-2,9.709050179E0
3.819554688E0,3.000000026E-3,8.100000024E-2,9.736050606E0
3.821543073E0,-3.000000026E-3,9.300000221E-2,9.742950439E0
3.823531612E0,-3.000000026E-3,7.800000161E-2,9.727950096E0
3.825519996E0,0.000000000E0,5.700000376E-2,9.730950356E0
3.828787996E0,-1.005000062E-2,9.300000221E-2,9.730950356E0
3.829529765E0,1.050000079E-3,8.805000782E-2,9.730950356E0
3.831485227E0,1.005000062E-2,8.595000207E-2,9.730950356E0
3.833473847E0,1.005000062E-2,9.300000221E-2,9.726000786E0
3.835462386E0,3.000000026E-3,1.069500074E-1,9.726000786E0
3.837450770E0,2.205000073E-2,1.069500074E-1,9.739950180E0
3.839439078E0,6.000000052E-3,9.795000404E-2,9.736050606E0
3.841427693E0,1.995000057E-2,9.300000221E-2,9.757050514E0
3.843416001E0,1.800000109E-2,8.805000782E-2,9.795000076E0
3.845404492E0,1.800000109E-2,8.805000782E-2,9.714000702E0
3.847392876E0,2.505000122E-2,7.605000585E-2,9.697050095E0
3.849381184E0,2.205000073E-2,8.805000782E-2,9.670950890E0
3.851369799E0,2.700000070E-2,8.100000024E-2,9.724050522E0
3.853358338E0,1.305000018E-2,7.605000585E-2,9.726000786E0
3.855346722E0,1.995000057E-2,8.805000782E-2,9.700050354E0
3.857335261E0,2.505000122E-2,7.095000148E-2,9.700050354E0
3.859323569E0,2.700000070E-2,6.599999964E-2,9.700050354E0
3.861311953E0,3.000000119E-2,9.000000358E-2,9.733050346E0
3.863300492E0,2.505000122E-2,8.295000345E-2,9.738000870E0
3.865289107E0,2.205000073E-2,8.595000207E-2,9.730950356E0
3.867277415E0,6.000000052E-3,8.295000345E-2,9.727950096E0
3.869265799E0,2.205000073E-2,8.100000024E-2,9.759000778E0
3.871254415E0,1.005000062E-2,7.800000161E-2,9.742950439E0
3.873242722E0,7.950000465E-3,7.605000585E-2,9.726000786E0
3.875231261E0,1.995000057E-2,8.805000782E-2,9.726000786E0
3.877219646E0,1.005000062E-2,8.805000782E-2,9.726000786E0
3.879208184E0,1.500000060E-2,8.805000782E-2,9.750000000E0
3.881196597E0,1.005000062E-2,8.295000345E-2,9.742950439E0
3.883185135E0,1.995000057E-2,8.295000345E-2,9.724050522E0
3.885173520E0,1.500000060E-2,8.295000345E-2,9.714000702E0
3.887162058E0,1.005000062E-2,9.300000221E-2,9.721050262E0
3.889150443E0,1.995000057E-2,7.095000148E-2,9.726000786E0
3.891138751E0,6.000000052E-3,7.605000585E-2,9.739950180E0
3.893127371E0,1.500000060E-2,8.295000345E-2,9.750000000E0
3.895115909E0,1.005000062E-2,8.595000207E-2,9.751950264E0
3.897104217E0,2.205000073E-2,7.800000161E-2,9.757050514E0
3.899092602E0,1.005000062E-2,9.495000541E-2,9.759000778E0
3.901081140E0,0.000000000E0,8.100000024E-2,9.742950439E0
3.903069530E0,7.950000465E-3,9.300000221E-2,9.724050522E0
3.905058068E0,1.050000079E-3,9.000000358E-2,9.727950096E0
3.907046453E0,1.050000079E-3,9.495000541E-2,9.726000786E0
3.909034991E0,1.050000079E-3,9.000000358E-2,9.703950882E0
3.911023376E0,6.000000052E-3,8.100000024E-2,9.694950104E0
3.913011914E0,1.500000060E-2,8.805000782E-2,9.706950188E0
3.915000289E0,6.000000052E-3,8.805000782E-2,9.715950012E0
3.916988828E0,1.005000062E-2,8.295000345E-2,9.703950882E0
3.918977135E0,2.505000122E-2,7.605000585E-2,9.702000618E0
3.920965520E0,1.305000018E-2,8.595000207E-2,9.703950882E0
3.922954135E0,-1.005000062E-2,8.595000207E-2,9.709050179E0
3.924942674E0,7.950000465E-3,8.805000782E-2,9.715950012E0
3.926931068E0,1.500000060E-2,9.000000358E-2,9.727950096E0
3.928919376E0,0.000000000E0,7.395000011E-2,9.745050430E0
3.930907914E0,1.305000018E-2,9.300000221E-2,9.762000084E0
3.932896299E0,1.305000018E-2,1.020000055E-1,9.727950096E0
3.934884838E0,3.000000119E-2,7.800000161E-2,9.733050346E0
3.936873222E0,1.995000057E-2,8.100000024E-2,9.736050606E0
3.938861564E0,1.995000057E-2,9.495000541E-2,9.742950439E0
3.940850179E0,3.705000132E-2,9.300000221E-2,9.757050514E0
3.942838718E0,1.500000060E-2,8.805000782E-2,9.738000870E0
3.944827102E0,2.505000122E-2,7.800000161E-2,9.738000870E0
3.946815641E0,2.505000122E-2,8.595000207E-2,9.739950180E0
3.948803949E0,1.800000109E-2,8.100000024E-2,9.745050430E0
3.950792347E0,1.995000057E-2,8.805000782E-2,9.736050606E0
3.952780886E0,2.205000073E-2,8.595000207E-2,9.724050522E0
3.954769501E0,6.000000052E-3,6.900000572E-2,9.724050522E0
3.956757809E0,1.500000060E-2,6.900000572E-2,9.738000870E0
3.958746193E0,1.500000060E-2,6.405000389E-2,9.724050522E0
3.960734809E0,1.305000018E-2,8.295000345E-2,9.733050346E0
3.962723111E0,6.000000052E-3,7.095000148E-2,9.726000786E0
3.964711650E0,-3.000000026E-3,6.599999964E-2,9.703950882E0
3.966700034E0,7.950000465E-3,7.605000585E-2,9.715950012E0
3.968688573E0,1.050000079E-3,6.195000187E-2,9.730950356E0
3.970676958E0,-7.950000465E-3,6.195000187E-2,9.724050522E0
3.972665496E0,7.950000465E-3,6.599999964E-2,9.724050522E0
3.974653876E0,-4.950000439E-3,6.405000389E-2,9.727950096E0
3.976642414E0,3.000000026E-3,6.599999964E-2,9.738000870E0
3.978630799E0,1.005000062E-2,7.095000148E-2,9.721050262E0
3.980619106E0,6.000000052E-3,7.395000011E-2,9.733050346E0
3.982607645E0,3.000000026E-3,5.895000324E-2,9.726000786E0
3.984596260E0,1.005000062E-2,5.700000376E-2,9.715950012E0
3.986584578E0,1.005000062E-2,4.995000362E-2,9.712050438E0
3.988572963E0,3.000000026E-3,6.900000572E-2,9.712050438E0
3.990561501E0,-3.000000026E-3,5.400000140E-2,9.730950356E0
3.992549886E0,-4.950000439E-3,5.400000140E-2,9.702000618E0
3.994538424E0,7.950000465E-3,5.700000376E-2,9.691950798E0
3.996526809E0,7.950000465E-3,5.895000324E-2,9.727950096E0
3.998515337E0,-3.000000026E-3,5.700000376E-2,9.706950188E0
4.000503722E0,-4.950000439E-3,4.995000362E-2,9.721050262E0
4.002492260E0,3.000000026E-3,5.895000324E-2,9.718950272E0
4.004480645E0,1.800000109E-2,6.599999964E-2,9.706950188E0
4.006469183E0,6.000000052E-3,4.305000231E-2,9.738000870E0
4.008457491E0,6.000000052E-3,5.700000376E-2,9.726000786E0
4.010445872E0,1.995000057E-2,6.599999964E-2,9.727950096E0
4.012434410E0,1.500000060E-2,6.195000187E-2,9.733050346E0
4.014423026E0,7.950000465E-3,5.700000376E-2,9.745050430E0
4.016411410E0,2.205000073E-2,7.800000161E-2,9.754950523E0
4.018399718E0,1.800000109E-2,7.605000585E-2,9.736050606E0
4.020388333E0,6.000000052E-3,8.295000345E-2,9.736050606E0
4.022376631E0,1.305000018E-2,8.595000207E-2,9.763950348E0
4.024365169E0,1.005000062E-2,8.805000782E-2,9.733050346E0
4.026359365E0,6.000000052E-3,9.495000541E-2,9.718950272E0
4.028353554E0,2.205000073E-2,9.300000221E-2,9.742950439E0
4.030330477E0,2.505000122E-2,9.495000541E-2,9.742950439E0
4.032319016E0,3.405000269E-2,8.100000024E-2,9.739950180E0
4.034307438E0,1.500000060E-2,8.805000782E-2,9.733050346E0
4.036295977E0,1.800000109E-2,1.000500023E-1,9.721050262E0
4.038284361E0,3.405000269E-2,8.805000782E-2,9.738000870E0
4.040272669E0,3.195000067E-2,1.170000061E-1,9.721050262E0
4.042261208E0,2.700000070E-2,1.069500074E-1,9.721050262E0
4.044249843E0,4.395000264E-2,1.120500043E-1,9.726000786E0
4.046238151E0,4.200000316E-2,1.099500060E-1,9.724050522E0
4.048226535E0,4.605000094E-2,1.020000055E-1,9.721050262E0
4.050215074E0,3.405000269E-2,1.140000075E-1,9.736050606E0
4.052203458E0,5.400000140E-2,1.000500023E-1,9.726000786E0
4.054191997E0,3.195000067E-2,1.050000042E-1,9.727950096E0
4.056180376E0,3.195000067E-2,1.099500060E-1,9.730950356E0
4.058168915E0,3.900000080E-2,8.295000345E-2,9.726000786E0
4.060157299E0,4.905000329E-2,9.000000358E-2,9.706950188E0
4.062145838E0,4.200000316E-2,9.795000404E-2,9.709050179E0
4.064134223E0,4.200000316E-2,8.805000782E-2,9.700050354E0
4.066122761E0,3.900000080E-2,9.300000221E-2,9.715950012E0
4.068111112E0,3.405000269E-2,8.100000024E-2,9.703950882E0
4.070099419E0,3.705000132E-2,7.395000011E-2,9.697050095E0
4.072087958E0,5.100000277E-2,8.295000345E-2,9.706950188E0
4.074076573E0,3.405000269E-2,7.605000585E-2,9.709050179E0
4.076064958E0,3.705000132E-2,7.095000148E-2,9.727950096E0
4.078053266E0,3.405000269E-2,9.000000358E-2,9.724050522E0
4.080041809E0,3.900000080E-2,7.605000585E-2,9.730950356E0
4.082030194E0,2.205000073E-2,7.605000585E-2,9.726000786E0
4.084018732E0,3.900000080E-2,6.599999964E-2,9.726000786E0
4.086007117E0,2.700000070E-2,8.805000782E-2,9.736050606E0
4.087995655E0,3.195000067E-2,7.800000161E-2,9.738000870E0
